correct,eye_used,file,nGap,nSacc,n_blink,outlier,resp,rt,scene,sceneNr,target,trialId,trialType,xTarget,yTarget
TIMEOUT,undefined,fgap08.asc,0,77,0,0,TIMEOUT,20000,117.0,117,z.txt,0,control,735,429
TIMEOUT,undefined,fgap08.asc,0,71,1,0,TIMEOUT,20000,113.0,113,z.txt,1,control,1204,363
TIMEOUT,undefined,fgap08.asc,0,75,0,0,TIMEOUT,20000,160.0,160,z.txt,2,control,124,754
TIMEOUT,undefined,fgap08.asc,0,71,0,0,TIMEOUT,20000,130.0,130,m.txt,3,control,20,274
TIMEOUT,undefined,fgap08.asc,0,75,2,0,TIMEOUT,20000,195.0,195,z.txt,4,control,309,49
,undefined,fgap08.asc,0,0,2,0,,,19.0,19,z.txt,5,gap,891,379
,undefined,fgap08.asc,0,0,3,0,,,40.0,40,z.txt,6,gap,1205,358
,undefined,fgap08.asc,0,0,0,0,,,52.0,52,m.txt,7,gap,1117,166
,undefined,fgap08.asc,0,0,0,0,,,161.0,161,z.txt,8,gap,427,254
,undefined,fgap08.asc,0,0,0,0,,,64.0,64,z.txt,9,gap,444,775
CORRECT,undefined,fgap08.asc,0,14,5,0,z,4844,115.0,115,z.txt,10,control,91,286
CORRECT,undefined,fgap08.asc,0,34,2,0,z,12308,89.0,89,z.txt,11,control,346,587
CORRECT,undefined,fgap08.asc,0,6,0,0,m,2010,73.0,73,m.txt,12,control,635,788
TIMEOUT,undefined,fgap08.asc,0,73,0,0,TIMEOUT,20000,149.0,149,m.txt,13,control,200,415
CORRECT,undefined,fgap08.asc,0,71,2,0,m,19881,141.0,141,m.txt,14,control,289,116
,undefined,fgap08.asc,0,0,0,0,,,104.0,104,m.txt,15,gap,943,79
,undefined,fgap08.asc,0,0,0,0,,,129.0,129,z.txt,16,gap,1222,780
,undefined,fgap08.asc,0,0,1,0,,,38.0,38,z.txt,17,gap,754,358
,undefined,fgap08.asc,0,0,0,0,,,103.0,103,z.txt,18,gap,622,480
,undefined,fgap08.asc,0,0,0,0,,,81.0,81,z.txt,19,gap,323,441
TIMEOUT,undefined,fgap08.asc,0,69,0,0,TIMEOUT,20000,95.0,95,z.txt,20,control,719,168
TIMEOUT,undefined,fgap08.asc,0,70,0,0,TIMEOUT,20000,62.0,62,m.txt,21,control,240,302
TIMEOUT,undefined,fgap08.asc,0,71,0,0,TIMEOUT,20000,21.0,21,z.txt,22,control,83,409
TIMEOUT,undefined,fgap08.asc,0,72,0,0,TIMEOUT,20000,112.0,112,z.txt,23,control,348,830
TIMEOUT,undefined,fgap08.asc,0,73,0,0,TIMEOUT,20000,88.0,88,z.txt,24,control,226,441
,undefined,fgap08.asc,0,0,1,0,,,169.0,169,z.txt,25,gap,140,405
,undefined,fgap08.asc,0,0,1,0,,,101.0,101,m.txt,26,gap,414,499
,undefined,fgap08.asc,0,0,1,0,,,138.0,138,z.txt,27,gap,390,533
,undefined,fgap08.asc,0,0,0,0,,,74.0,74,z.txt,28,gap,230,639
,undefined,fgap08.asc,0,0,2,0,,,136.0,136,m.txt,29,gap,37,407
TIMEOUT,undefined,fgap08.asc,0,69,0,0,TIMEOUT,20000,97.0,97,z.txt,30,control,458,218
TIMEOUT,undefined,fgap08.asc,0,75,0,0,TIMEOUT,20000,3.0,3,z.txt,31,control,1247,644
TIMEOUT,undefined,fgap08.asc,0,67,0,0,TIMEOUT,20000,43.0,43,z.txt,32,control,758,626
CORRECT,undefined,fgap08.asc,0,21,1,0,m,14329,155.0,155,m.txt,33,control,1135,466
CORRECT,undefined,fgap08.asc,0,24,0,0,m,6881,153.0,153,m.txt,34,control,649,123
,undefined,fgap08.asc,0,0,0,0,,,1.0,1,z.txt,35,gap,941,527
,undefined,fgap08.asc,0,0,0,0,,,46.0,46,m.txt,36,gap,1223,420
,undefined,fgap08.asc,0,0,0,0,,,100.0,100,m.txt,37,gap,467,794
,undefined,fgap08.asc,0,0,1,0,,,60.0,60,z.txt,38,gap,444,415
,undefined,fgap08.asc,0,0,0,0,,,54.0,54,z.txt,39,gap,284,188
CORRECT,undefined,fgap08.asc,0,73,0,0,z,18647,24.0,24,z.txt,40,control,569,440
CORRECT,undefined,fgap08.asc,0,11,0,0,m,2530,176.0,176,m.txt,41,control,1003,675
INCORRECT,undefined,fgap08.asc,0,56,0,0,m,16350,27.0,27,z.txt,42,control,641,31
CORRECT,undefined,fgap08.asc,0,9,1,0,z,2711,151.0,151,z.txt,43,control,982,787
TIMEOUT,undefined,fgap08.asc,0,66,0,0,TIMEOUT,20000,80.0,80,z.txt,44,control,73,80
,undefined,fgap08.asc,0,0,0,0,,,111.0,111,z.txt,45,gap,501,242
,undefined,fgap08.asc,0,0,0,0,,,173.0,173,z.txt,46,gap,114,424
,undefined,fgap08.asc,0,0,0,0,,,159.0,159,m.txt,47,gap,191,753
,undefined,fgap08.asc,0,0,0,0,,,147.0,147,z.txt,48,gap,1205,601
,undefined,fgap08.asc,0,0,1,0,,,83.0,83,z.txt,49,gap,843,100
CORRECT,undefined,fgap08.asc,0,19,1,0,m,8251,137.0,137,m.txt,50,control,714,131
CORRECT,undefined,fgap08.asc,0,37,3,0,m,13996,31.0,31,m.txt,51,control,1249,470
CORRECT,undefined,fgap08.asc,0,40,0,0,m,10909,127.0,127,m.txt,52,control,599,82
CORRECT,undefined,fgap08.asc,0,4,0,0,m,1212,140.0,140,m.txt,53,control,630,101
TIMEOUT,undefined,fgap08.asc,0,72,3,0,TIMEOUT,20000,82.0,82,m.txt,54,control,1251,511
,undefined,fgap08.asc,0,0,0,0,,,90.0,90,z.txt,55,gap,695,164
,undefined,fgap08.asc,0,0,0,0,,,189.0,189,m.txt,56,gap,1187,635
,undefined,fgap08.asc,0,0,0,0,,,183.0,183,m.txt,57,gap,277,464
,undefined,fgap08.asc,0,0,2,0,,,65.0,65,m.txt,58,gap,277,612
,undefined,fgap08.asc,0,0,1,0,,,10.0,10,m.txt,59,gap,634,337
CORRECT,undefined,fgap08.asc,0,9,1,0,m,2145,12.0,12,m.txt,60,control,588,70
TIMEOUT,undefined,fgap08.asc,0,74,0,0,TIMEOUT,20000,131.0,131,z.txt,61,control,1143,163
CORRECT,undefined,fgap08.asc,0,36,2,0,m,9617,165.0,165,m.txt,62,control,1062,297
CORRECT,undefined,fgap08.asc,0,33,0,0,m,9219,94.0,94,m.txt,63,control,792,153
CORRECT,undefined,fgap08.asc,0,4,1,0,m,5779,78.0,78,m.txt,64,control,499,395
,undefined,fgap08.asc,0,0,2,0,,,77.0,77,z.txt,65,gap,1220,595
,undefined,fgap08.asc,0,0,0,0,,,57.0,57,z.txt,66,gap,741,242
,undefined,fgap08.asc,0,0,0,0,,,135.0,135,z.txt,67,gap,72,93
,undefined,fgap08.asc,0,0,0,0,,,48.0,48,m.txt,68,gap,453,709
,undefined,fgap08.asc,0,0,0,0,,,17.0,17,m.txt,69,gap,997,424
TIMEOUT,undefined,fgap08.asc,0,69,0,0,TIMEOUT,20000,99.0,99,m.txt,70,control,349,443
CORRECT,undefined,fgap08.asc,0,23,0,0,z,7883,199.0,199,z.txt,71,control,679,413
CORRECT,undefined,fgap08.asc,0,8,3,0,z,5495,158.0,158,z.txt,72,control,1223,357
CORRECT,undefined,fgap08.asc,0,4,0,0,m,1654,172.0,172,m.txt,73,control,1039,742
TIMEOUT,undefined,fgap08.asc,0,68,2,0,TIMEOUT,20000,180.0,180,z.txt,74,control,1036,239
,undefined,fgap08.asc,0,0,0,0,,,69.0,69,z.txt,75,gap,645,476
,undefined,fgap08.asc,0,0,3,0,,,157.0,157,z.txt,76,gap,60,170
,undefined,fgap08.asc,0,0,0,0,,,42.0,42,m.txt,77,gap,128,413
,undefined,fgap08.asc,0,0,3,0,,,39.0,39,m.txt,78,gap,125,335
,undefined,fgap08.asc,0,0,2,0,,,181.0,181,z.txt,79,gap,1143,206
TIMEOUT,undefined,fgap08.asc,0,69,2,0,TIMEOUT,20000,4.0,4,m.txt,80,control,520,310
CORRECT,undefined,fgap08.asc,0,24,0,0,z,6819,171.0,171,z.txt,81,control,463,485
CORRECT,undefined,fgap08.asc,0,3,1,0,m,929,150.0,150,m.txt,82,control,670,458
CORRECT,undefined,fgap08.asc,0,37,0,0,m,10642,92.0,92,m.txt,83,control,64,707
CORRECT,undefined,fgap08.asc,0,28,0,0,m,7933,163.0,163,m.txt,84,control,365,264
,undefined,fgap08.asc,0,0,0,0,,,0.0,0,m.txt,85,gap,957,673
,undefined,fgap08.asc,0,0,0,0,,,187.0,187,z.txt,86,gap,670,385
,undefined,fgap08.asc,0,0,0,0,,,152.0,152,m.txt,87,gap,826,718
,undefined,fgap08.asc,0,0,1,0,,,107.0,107,z.txt,88,gap,867,69
,undefined,fgap08.asc,0,0,1,0,,,110.0,110,z.txt,89,gap,161,55
TIMEOUT,undefined,fgap08.asc,0,72,2,0,TIMEOUT,20000,126.0,126,z.txt,90,control,281,758
CORRECT,undefined,fgap08.asc,0,35,1,0,z,9599,144.0,144,z.txt,91,control,758,774
CORRECT,undefined,fgap08.asc,0,23,0,0,m,7933,123.0,123,m.txt,92,control,124,576
TIMEOUT,undefined,fgap08.asc,0,69,5,0,TIMEOUT,20000,133.0,133,z.txt,93,control,31,671
CORRECT,undefined,fgap08.asc,0,5,0,0,z,1682,16.0,16,z.txt,94,control,345,487
,undefined,fgap08.asc,0,0,0,0,,,121.0,121,m.txt,95,gap,104,411
,undefined,fgap08.asc,0,0,1,0,,,174.0,174,z.txt,96,gap,808,418
,undefined,fgap08.asc,0,0,3,0,,,79.0,79,m.txt,97,gap,793,624
,undefined,fgap08.asc,0,0,0,0,,,87.0,87,m.txt,98,gap,387,336
,undefined,fgap08.asc,0,0,2,0,,,51.0,51,m.txt,99,gap,1102,315
TIMEOUT,undefined,fgap08.asc,0,72,0,0,TIMEOUT,20000,184.0,184,z.txt,100,control,925,220
CORRECT,undefined,fgap08.asc,0,13,2,0,z,5294,30.0,30,z.txt,101,control,92,583
CORRECT,undefined,fgap08.asc,0,2,1,0,m,5929,53.0,53,m.txt,102,control,704,528
TIMEOUT,undefined,fgap08.asc,0,73,0,0,TIMEOUT,20000,26.0,26,m.txt,103,control,599,40
TIMEOUT,undefined,fgap08.asc,0,68,1,0,TIMEOUT,20000,118.0,118,z.txt,104,control,1095,238
,undefined,fgap08.asc,0,0,6,0,,,119.0,119,m.txt,105,gap,423,816
,undefined,fgap08.asc,0,0,4,0,,,91.0,91,m.txt,106,gap,710,431
,undefined,fgap08.asc,0,0,1,0,,,76.0,76,m.txt,107,gap,121,80
,undefined,fgap08.asc,0,0,1,0,,,125.0,125,m.txt,108,gap,1151,540
,undefined,fgap08.asc,0,0,0,0,,,196.0,196,m.txt,109,gap,533,824
TIMEOUT,undefined,fgap08.asc,0,69,2,0,TIMEOUT,20000,154.0,154,z.txt,110,control,136,459
CORRECT,undefined,fgap08.asc,0,10,2,0,z,3424,67.0,67,z.txt,111,control,164,104
TIMEOUT,undefined,fgap08.asc,0,65,0,0,TIMEOUT,20000,58.0,58,z.txt,112,control,1235,140
CORRECT,undefined,fgap08.asc,0,11,1,0,z,2522,102.0,102,z.txt,113,control,229,617
CORRECT,undefined,fgap08.asc,0,21,2,0,z,5629,164.0,164,z.txt,114,control,35,42
,undefined,fgap08.asc,0,0,2,0,,,66.0,66,m.txt,115,gap,1204,266
,undefined,fgap08.asc,0,0,4,0,,,114.0,114,m.txt,116,gap,786,106
,undefined,fgap08.asc,0,0,0,0,,,36.0,36,m.txt,117,gap,1043,387
,undefined,fgap08.asc,0,0,3,0,,,105.0,105,z.txt,118,gap,418,347
,undefined,fgap08.asc,0,0,1,0,,,193.0,193,z.txt,119,gap,541,487
TIMEOUT,undefined,fgap08.asc,0,71,0,0,TIMEOUT,20000,50.0,50,z.txt,120,control,225,108
CORRECT,undefined,fgap08.asc,0,54,2,0,z,15141,84.0,84,z.txt,121,control,638,832
INCORRECT,undefined,fgap08.asc,0,70,0,0,z,19337,23.0,23,m.txt,122,control,148,488
TIMEOUT,undefined,fgap08.asc,0,68,0,0,TIMEOUT,20000,41.0,41,z.txt,123,control,999,230
CORRECT,undefined,fgap08.asc,0,65,2,0,z,17520,177.0,177,z.txt,124,control,350,54
,undefined,fgap08.asc,0,0,1,0,,,49.0,49,z.txt,125,gap,990,497
,undefined,fgap08.asc,0,0,2,0,,,61.0,61,m.txt,126,gap,545,747
,undefined,fgap08.asc,0,0,2,0,,,186.0,186,m.txt,127,gap,1228,164
,undefined,fgap08.asc,0,0,0,0,,,175.0,175,z.txt,128,gap,916,572
,undefined,fgap08.asc,0,0,0,0,,,194.0,194,z.txt,129,gap,580,702
CORRECT,undefined,fgap08.asc,0,12,3,0,m,3648,20.0,20,m.txt,130,control,836,186
CORRECT,undefined,fgap08.asc,0,4,0,0,m,1955,13.0,13,m.txt,131,control,603,711
CORRECT,undefined,fgap08.asc,0,18,5,0,m,5395,35.0,35,m.txt,132,control,23,354
TIMEOUT,undefined,fgap08.asc,0,73,1,0,TIMEOUT,20000,142.0,142,m.txt,133,control,455,793
CORRECT,undefined,fgap08.asc,0,10,1,0,m,3073,124.0,124,m.txt,134,control,714,56
,undefined,fgap08.asc,0,0,1,0,,,25.0,25,z.txt,135,gap,637,556
,undefined,fgap08.asc,0,0,3,0,,,178.0,178,m.txt,136,gap,218,557
,undefined,fgap08.asc,0,0,0,0,,,192.0,192,z.txt,137,gap,43,693
,undefined,fgap08.asc,0,0,0,0,,,5.0,5,m.txt,138,gap,396,111
,undefined,fgap08.asc,0,0,2,0,,,70.0,70,m.txt,139,gap,723,431
TIMEOUT,undefined,fgap08.asc,0,72,0,0,TIMEOUT,20000,109.0,109,m.txt,140,control,1246,279
TIMEOUT,undefined,fgap08.asc,0,66,0,0,TIMEOUT,20000,146.0,146,m.txt,141,control,916,26
CORRECT,undefined,fgap08.asc,0,6,1,0,m,2990,14.0,14,m.txt,142,control,980,81
TIMEOUT,undefined,fgap08.asc,0,75,1,0,TIMEOUT,20000,120.0,120,z.txt,143,control,368,366
TIMEOUT,undefined,fgap08.asc,0,68,0,0,TIMEOUT,20000,93.0,93,z.txt,144,control,560,106
,undefined,fgap08.asc,0,0,1,0,,,47.0,47,m.txt,145,gap,244,591
,undefined,fgap08.asc,0,0,2,0,,,75.0,75,m.txt,146,gap,988,109
,undefined,fgap08.asc,0,0,0,0,,,198.0,198,z.txt,147,gap,1159,91
,undefined,fgap08.asc,0,0,2,0,,,85.0,85,m.txt,148,gap,1015,549
,undefined,fgap08.asc,0,0,3,0,,,98.0,98,z.txt,149,gap,1217,764
CORRECT,undefined,fgap08.asc,0,7,1,0,z,4092,191.0,191,z.txt,150,control,1244,134
CORRECT,undefined,fgap08.asc,0,48,1,0,m,13389,33.0,33,m.txt,151,control,49,414
TIMEOUT,undefined,fgap08.asc,0,67,0,0,TIMEOUT,20000,132.0,132,m.txt,152,control,102,531
CORRECT,undefined,fgap08.asc,0,24,2,0,z,10855,15.0,15,z.txt,153,control,27,41
CORRECT,undefined,fgap08.asc,0,3,1,0,z,1117,168.0,168,z.txt,154,control,535,475
,undefined,fgap08.asc,0,0,0,0,,,170.0,170,z.txt,155,gap,552,139
,undefined,fgap08.asc,0,0,3,0,,,156.0,156,z.txt,156,gap,1086,610
,undefined,fgap08.asc,0,0,2,0,,,128.0,128,z.txt,157,gap,1032,334
,undefined,fgap08.asc,0,0,1,0,,,182.0,182,m.txt,158,gap,918,440
,undefined,fgap08.asc,0,0,0,0,,,11.0,11,z.txt,159,gap,542,665
CORRECT,undefined,fgap08.asc,0,10,2,0,m,3708,108.0,108,m.txt,160,control,846,143
CORRECT,undefined,fgap08.asc,0,6,3,0,z,2317,56.0,56,z.txt,161,control,833,467
TIMEOUT,undefined,fgap08.asc,0,52,0,0,TIMEOUT,20000,71.0,71,z.txt,162,control,795,343
CORRECT,undefined,fgap08.asc,0,30,3,0,z,11758,44.0,44,z.txt,163,control,211,300
TIMEOUT,undefined,fgap08.asc,0,71,0,0,TIMEOUT,20000,148.0,148,z.txt,164,control,412,666
,undefined,fgap08.asc,0,0,2,0,,,96.0,96,z.txt,165,gap,316,74
,undefined,fgap08.asc,0,0,1,0,,,18.0,18,m.txt,166,gap,536,202
,undefined,fgap08.asc,0,0,2,0,,,116.0,116,z.txt,167,gap,1191,694
,undefined,fgap08.asc,0,0,6,0,,,190.0,190,m.txt,168,gap,815,37
,undefined,fgap08.asc,0,0,0,0,,,185.0,185,z.txt,169,gap,392,651
CORRECT,undefined,fgap08.asc,0,43,4,0,z,14295,28.0,28,z.txt,170,control,845,591
CORRECT,undefined,fgap08.asc,0,14,5,0,m,5662,167.0,167,m.txt,171,control,557,799
CORRECT,undefined,fgap08.asc,0,13,2,0,m,3887,145.0,145,m.txt,172,control,172,58
CORRECT,undefined,fgap08.asc,0,9,1,0,z,2706,134.0,134,z.txt,173,control,774,571
CORRECT,undefined,fgap08.asc,0,11,0,0,m,4058,34.0,34,m.txt,174,control,1240,437
,undefined,fgap08.asc,0,0,2,0,,,37.0,37,m.txt,175,gap,334,90
,undefined,fgap08.asc,0,0,1,0,,,29.0,29,m.txt,176,gap,466,109
,undefined,fgap08.asc,0,0,0,0,,,22.0,22,m.txt,177,gap,802,432
,undefined,fgap08.asc,0,0,1,0,,,45.0,45,m.txt,178,gap,221,390
,undefined,fgap08.asc,0,0,1,0,,,86.0,86,z.txt,179,gap,115,573
CORRECT,undefined,fgap08.asc,0,6,1,0,m,2326,32.0,32,m.txt,180,control,220,283
CORRECT,undefined,fgap08.asc,0,25,2,0,m,7649,162.0,162,m.txt,181,control,254,744
CORRECT,undefined,fgap08.asc,0,1,0,0,z,1045,143.0,143,z.txt,182,control,662,418
CORRECT,undefined,fgap08.asc,0,1,0,0,m,688,106.0,106,m.txt,183,control,688,481
CORRECT,undefined,fgap08.asc,0,6,0,0,z,2519,7.0,7,z.txt,184,control,459,246
,undefined,fgap08.asc,0,0,2,0,,,55.0,55,m.txt,185,gap,35,351
,undefined,fgap08.asc,0,0,0,0,,,6.0,6,z.txt,186,gap,431,168
,undefined,fgap08.asc,0,0,0,0,,,8.0,8,z.txt,187,gap,59,74
,undefined,fgap08.asc,0,0,1,0,,,9.0,9,m.txt,188,gap,1141,151
,undefined,fgap08.asc,0,0,0,0,,,68.0,68,z.txt,189,gap,1191,444
CORRECT,undefined,fgap08.asc,0,5,0,0,z,2239,59.0,59,z.txt,190,control,448,433
TIMEOUT,undefined,fgap08.asc,0,65,1,0,TIMEOUT,20000,139.0,139,m.txt,191,control,212,821
CORRECT,undefined,fgap08.asc,0,1,0,0,m,878,166.0,166,m.txt,192,control,505,453
CORRECT,undefined,fgap08.asc,0,13,0,0,z,3530,179.0,179,z.txt,193,control,843,390
CORRECT,undefined,fgap08.asc,0,42,0,0,z,12324,122.0,122,z.txt,194,control,252,781
,undefined,fgap08.asc,0,0,2,0,,,197.0,197,m.txt,195,gap,670,577
,undefined,fgap08.asc,0,0,0,0,,,2.0,2,m.txt,196,gap,454,514
,undefined,fgap08.asc,0,0,0,0,,,72.0,72,z.txt,197,gap,986,465
,undefined,fgap08.asc,0,0,0,0,,,188.0,188,m.txt,198,gap,542,564
,undefined,fgap08.asc,0,0,0,0,,,63.0,63,m.txt,199,gap,183,142
INCORRECT,undefined,fgap10.asc,0,42,4,0,z,15565,136.0,136,m.txt,0,control,37,407
TIMEOUT,undefined,fgap10.asc,0,68,3,0,TIMEOUT,20000,82.0,82,m.txt,1,control,1251,511
TIMEOUT,undefined,fgap10.asc,0,76,17,0,TIMEOUT,20000,183.0,183,m.txt,2,control,277,464
INCORRECT,undefined,fgap10.asc,0,47,2,0,m,12902,107.0,107,z.txt,3,control,867,69
CORRECT,undefined,fgap10.asc,0,26,6,0,z,8218,68.0,68,z.txt,4,control,1191,444
,undefined,fgap10.asc,0,0,4,0,,,128.0,128,z.txt,5,gap,1032,334
,undefined,fgap10.asc,0,0,20,0,,,193.0,193,z.txt,6,gap,541,487
,undefined,fgap10.asc,0,0,2,0,,,49.0,49,z.txt,7,gap,990,497
,undefined,fgap10.asc,0,0,2,0,,,34.0,34,m.txt,8,gap,1240,437
,undefined,fgap10.asc,0,0,3,0,,,66.0,66,m.txt,9,gap,1204,266
CORRECT,undefined,fgap10.asc,0,37,9,0,z,10657,148.0,148,z.txt,10,control,412,666
CORRECT,undefined,fgap10.asc,0,5,7,0,m,1854,132.0,132,m.txt,11,control,102,531
CORRECT,undefined,fgap10.asc,0,46,9,0,m,14296,104.0,104,m.txt,12,control,943,79
CORRECT,undefined,fgap10.asc,0,33,10,0,z,10623,187.0,187,z.txt,13,control,670,385
CORRECT,undefined,fgap10.asc,0,41,8,0,z,12258,7.0,7,z.txt,14,control,459,246
,undefined,fgap10.asc,0,0,11,0,,,190.0,190,m.txt,15,gap,815,37
,undefined,fgap10.asc,0,0,2,0,,,197.0,197,m.txt,16,gap,670,577
,undefined,fgap10.asc,0,0,8,0,,,184.0,184,z.txt,17,gap,925,220
,undefined,fgap10.asc,0,0,3,0,,,92.0,92,m.txt,18,gap,64,707
,undefined,fgap10.asc,0,0,10,0,,,22.0,22,m.txt,19,gap,802,432
CORRECT,undefined,fgap10.asc,0,37,7,0,m,11240,178.0,178,m.txt,20,control,218,557
CORRECT,undefined,fgap10.asc,0,44,11,0,z,13072,164.0,164,z.txt,21,control,35,42
INCORRECT,undefined,fgap10.asc,0,52,7,0,m,14329,126.0,126,z.txt,22,control,281,758
CORRECT,undefined,fgap10.asc,0,15,4,0,m,4428,141.0,141,m.txt,23,control,289,116
CORRECT,undefined,fgap10.asc,0,7,2,0,z,3808,102.0,102,z.txt,24,control,229,617
,undefined,fgap10.asc,0,0,6,0,,,85.0,85,m.txt,25,gap,1015,549
,undefined,fgap10.asc,0,0,2,0,,,172.0,172,m.txt,26,gap,1039,742
,undefined,fgap10.asc,0,0,4,0,,,35.0,35,m.txt,27,gap,23,354
,undefined,fgap10.asc,0,0,8,0,,,31.0,31,m.txt,28,gap,1249,470
,undefined,fgap10.asc,0,0,12,0,,,93.0,93,z.txt,29,gap,560,106
INCORRECT,undefined,fgap10.asc,0,34,3,0,m,10005,185.0,185,z.txt,30,control,392,651
CORRECT,undefined,fgap10.asc,0,56,9,0,m,16007,10.0,10,m.txt,31,control,634,337
INCORRECT,undefined,fgap10.asc,0,37,0,0,z,13294,18.0,18,m.txt,32,control,536,202
INCORRECT,undefined,fgap10.asc,0,42,5,0,z,13080,26.0,26,m.txt,33,control,599,40
INCORRECT,undefined,fgap10.asc,0,42,4,0,m,13010,90.0,90,z.txt,34,control,695,164
,undefined,fgap10.asc,0,0,4,0,,,160.0,160,z.txt,35,gap,124,754
,undefined,fgap10.asc,0,0,10,0,,,170.0,170,z.txt,36,gap,552,139
,undefined,fgap10.asc,0,0,1,0,,,116.0,116,z.txt,37,gap,1191,694
,undefined,fgap10.asc,0,0,4,0,,,40.0,40,z.txt,38,gap,1205,358
,undefined,fgap10.asc,0,0,2,0,,,113.0,113,z.txt,39,gap,1204,363
CORRECT,undefined,fgap10.asc,0,59,7,0,z,17201,157.0,157,z.txt,40,control,60,170
CORRECT,undefined,fgap10.asc,0,12,1,0,m,4643,2.0,2,m.txt,41,control,454,514
CORRECT,undefined,fgap10.asc,0,62,7,0,z,19859,133.0,133,z.txt,42,control,31,671
INCORRECT,undefined,fgap10.asc,0,49,6,0,z,13962,163.0,163,m.txt,43,control,365,264
INCORRECT,undefined,fgap10.asc,0,52,5,0,m,16130,115.0,115,z.txt,44,control,91,286
,undefined,fgap10.asc,0,0,1,0,,,28.0,28,z.txt,45,gap,845,591
,undefined,fgap10.asc,0,0,3,0,,,194.0,194,z.txt,46,gap,580,702
,undefined,fgap10.asc,0,0,3,0,,,125.0,125,m.txt,47,gap,1151,540
,undefined,fgap10.asc,0,0,6,0,,,103.0,103,z.txt,48,gap,622,480
,undefined,fgap10.asc,0,0,6,0,,,89.0,89,z.txt,49,gap,346,587
CORRECT,undefined,fgap10.asc,0,56,8,0,z,18654,117.0,117,z.txt,50,control,735,429
CORRECT,undefined,fgap10.asc,0,30,6,0,z,10571,77.0,77,z.txt,51,control,1220,595
CORRECT,undefined,fgap10.asc,0,3,5,0,m,1172,42.0,42,m.txt,52,control,128,413
TIMEOUT,undefined,fgap10.asc,0,67,4,0,TIMEOUT,20000,54.0,54,z.txt,53,control,284,188
INCORRECT,undefined,fgap10.asc,0,44,10,0,m,13912,21.0,21,z.txt,54,control,83,409
,undefined,fgap10.asc,0,0,2,0,,,127.0,127,m.txt,55,gap,599,82
,undefined,fgap10.asc,0,0,3,0,,,101.0,101,m.txt,56,gap,414,499
,undefined,fgap10.asc,0,0,17,0,,,145.0,145,m.txt,57,gap,172,58
,undefined,fgap10.asc,0,0,2,0,,,130.0,130,m.txt,58,gap,20,274
,undefined,fgap10.asc,0,0,1,0,,,0.0,0,m.txt,59,gap,957,673
INCORRECT,undefined,fgap10.asc,0,31,1,0,m,9252,41.0,41,z.txt,60,control,999,230
CORRECT,undefined,fgap10.asc,0,11,5,0,m,4375,46.0,46,m.txt,61,control,1223,420
CORRECT,undefined,fgap10.asc,0,2,3,0,m,1126,53.0,53,m.txt,62,control,704,528
TIMEOUT,undefined,fgap10.asc,0,63,1,0,TIMEOUT,20000,52.0,52,m.txt,63,control,1117,166
INCORRECT,undefined,fgap10.asc,0,62,1,0,z,19974,14.0,14,m.txt,64,control,980,81
,undefined,fgap10.asc,0,0,2,0,,,140.0,140,m.txt,65,gap,630,101
,undefined,fgap10.asc,0,0,2,0,,,121.0,121,m.txt,66,gap,104,411
,undefined,fgap10.asc,0,0,2,0,,,114.0,114,m.txt,67,gap,786,106
,undefined,fgap10.asc,0,0,0,0,,,195.0,195,z.txt,68,gap,309,49
,undefined,fgap10.asc,0,0,2,0,,,59.0,59,z.txt,69,gap,448,433
TIMEOUT,undefined,fgap10.asc,0,71,1,0,TIMEOUT,20000,27.0,27,z.txt,70,control,641,31
CORRECT,undefined,fgap10.asc,0,59,4,0,z,18821,80.0,80,z.txt,71,control,73,80
CORRECT,undefined,fgap10.asc,0,6,7,0,z,2890,158.0,158,z.txt,72,control,1223,357
CORRECT,undefined,fgap10.asc,0,14,1,0,m,5395,51.0,51,m.txt,73,control,1102,315
TIMEOUT,undefined,fgap10.asc,0,63,1,0,TIMEOUT,20000,38.0,38,z.txt,74,control,754,358
,undefined,fgap10.asc,0,0,0,0,,,154.0,154,z.txt,75,gap,136,459
,undefined,fgap10.asc,0,0,4,0,,,165.0,165,m.txt,76,gap,1062,297
,undefined,fgap10.asc,0,0,2,0,,,109.0,109,m.txt,77,gap,1246,279
,undefined,fgap10.asc,0,0,1,0,,,131.0,131,z.txt,78,gap,1143,163
,undefined,fgap10.asc,0,0,5,0,,,64.0,64,z.txt,79,gap,444,775
CORRECT,undefined,fgap10.asc,0,15,3,0,m,8000,176.0,176,m.txt,80,control,1003,675
TIMEOUT,undefined,fgap10.asc,0,60,4,0,TIMEOUT,20000,97.0,97,z.txt,81,control,458,218
CORRECT,undefined,fgap10.asc,0,32,4,0,m,8705,47.0,47,m.txt,82,control,244,591
TIMEOUT,undefined,fgap10.asc,0,61,2,0,TIMEOUT,20000,100.0,100,m.txt,83,control,467,794
CORRECT,undefined,fgap10.asc,0,61,8,0,m,18088,32.0,32,m.txt,84,control,220,283
,undefined,fgap10.asc,0,0,2,0,,,161.0,161,z.txt,85,gap,427,254
,undefined,fgap10.asc,0,0,1,0,,,76.0,76,m.txt,86,gap,121,80
,undefined,fgap10.asc,0,0,1,0,,,58.0,58,z.txt,87,gap,1235,140
,undefined,fgap10.asc,0,0,1,0,,,198.0,198,z.txt,88,gap,1159,91
,undefined,fgap10.asc,0,0,1,0,,,156.0,156,z.txt,89,gap,1086,610
TIMEOUT,undefined,fgap10.asc,0,69,0,0,TIMEOUT,20000,81.0,81,z.txt,90,control,323,441
TIMEOUT,undefined,fgap10.asc,0,67,4,0,TIMEOUT,20000,16.0,16,z.txt,91,control,345,487
INCORRECT,undefined,fgap10.asc,0,55,3,0,m,16372,111.0,111,z.txt,92,control,501,242
CORRECT,undefined,fgap10.asc,0,22,2,0,m,6622,39.0,39,m.txt,93,control,125,335
TIMEOUT,undefined,fgap10.asc,0,67,2,0,TIMEOUT,20000,99.0,99,m.txt,94,control,349,443
,undefined,fgap10.asc,0,0,2,0,,,65.0,65,m.txt,95,gap,277,612
,undefined,fgap10.asc,0,0,1,0,,,192.0,192,z.txt,96,gap,43,693
,undefined,fgap10.asc,0,0,2,0,,,91.0,91,m.txt,97,gap,710,431
,undefined,fgap10.asc,0,0,2,0,,,108.0,108,m.txt,98,gap,846,143
,undefined,fgap10.asc,0,0,3,0,,,181.0,181,z.txt,99,gap,1143,206
CORRECT,undefined,fgap10.asc,0,44,4,0,z,16200,88.0,88,z.txt,100,control,226,441
CORRECT,undefined,fgap10.asc,0,26,3,0,m,8768,166.0,166,m.txt,101,control,505,453
CORRECT,undefined,fgap10.asc,0,3,5,0,m,918,106.0,106,m.txt,102,control,688,481
TIMEOUT,undefined,fgap10.asc,0,59,3,0,TIMEOUT,20000,177.0,177,z.txt,103,control,350,54
TIMEOUT,undefined,fgap10.asc,0,45,2,0,TIMEOUT,20000,83.0,83,z.txt,104,control,843,100
,undefined,fgap10.asc,0,0,2,0,,,118.0,118,z.txt,105,gap,1095,238
,undefined,fgap10.asc,0,0,3,0,,,29.0,29,m.txt,106,gap,466,109
,undefined,fgap10.asc,0,0,0,0,,,12.0,12,m.txt,107,gap,588,70
,undefined,fgap10.asc,0,0,7,0,,,87.0,87,m.txt,108,gap,387,336
,undefined,fgap10.asc,0,0,3,0,,,135.0,135,z.txt,109,gap,72,93
CORRECT,undefined,fgap10.asc,0,9,5,0,z,3825,169.0,169,z.txt,110,control,140,405
CORRECT,undefined,fgap10.asc,0,28,2,0,z,9169,30.0,30,z.txt,111,control,92,583
INCORRECT,undefined,fgap10.asc,0,34,3,0,m,10171,57.0,57,z.txt,112,control,741,242
TIMEOUT,undefined,fgap10.asc,0,57,6,0,TIMEOUT,20000,122.0,122,z.txt,113,control,252,781
TIMEOUT,undefined,fgap10.asc,0,35,8,0,TIMEOUT,20000,95.0,95,z.txt,114,control,719,168
,undefined,fgap10.asc,0,0,1,0,,,174.0,174,z.txt,115,gap,808,418
,undefined,fgap10.asc,0,0,15,0,,,142.0,142,m.txt,116,gap,455,793
,undefined,fgap10.asc,0,0,20,0,,,17.0,17,m.txt,117,gap,997,424
,undefined,fgap10.asc,0,0,2,0,,,74.0,74,z.txt,118,gap,230,639
,undefined,fgap10.asc,0,0,2,0,,,19.0,19,z.txt,119,gap,891,379
TIMEOUT,undefined,fgap10.asc,0,66,3,0,TIMEOUT,20000,168.0,168,z.txt,120,control,535,475
CORRECT,undefined,fgap10.asc,0,26,1,0,m,8087,5.0,5,m.txt,121,control,396,111
TIMEOUT,undefined,fgap10.asc,0,64,3,0,TIMEOUT,20000,110.0,110,z.txt,122,control,161,55
CORRECT,undefined,fgap10.asc,0,26,4,0,z,9001,86.0,86,z.txt,123,control,115,573
TIMEOUT,undefined,fgap10.asc,0,73,0,0,TIMEOUT,20000,138.0,138,z.txt,124,control,390,533
,undefined,fgap10.asc,0,0,2,0,,,33.0,33,m.txt,125,gap,49,414
,undefined,fgap10.asc,0,0,1,0,,,146.0,146,m.txt,126,gap,916,26
,undefined,fgap10.asc,0,0,5,0,,,149.0,149,m.txt,127,gap,200,415
,undefined,fgap10.asc,0,0,2,0,,,50.0,50,z.txt,128,gap,225,108
,undefined,fgap10.asc,0,0,5,0,,,191.0,191,z.txt,129,gap,1244,134
CORRECT,undefined,fgap10.asc,0,7,4,0,z,2605,147.0,147,z.txt,130,control,1205,601
CORRECT,undefined,fgap10.asc,0,49,3,0,m,15667,155.0,155,m.txt,131,control,1135,466
TIMEOUT,undefined,fgap10.asc,0,58,4,0,TIMEOUT,20000,153.0,153,m.txt,132,control,649,123
CORRECT,undefined,fgap10.asc,0,56,1,0,z,14480,171.0,171,z.txt,133,control,463,485
CORRECT,undefined,fgap10.asc,0,44,3,0,m,13974,62.0,62,m.txt,134,control,240,302
,undefined,fgap10.asc,0,0,0,0,,,98.0,98,z.txt,135,gap,1217,764
,undefined,fgap10.asc,0,0,4,0,,,8.0,8,z.txt,136,gap,59,74
,undefined,fgap10.asc,0,0,4,0,,,112.0,112,z.txt,137,gap,348,830
,undefined,fgap10.asc,0,0,7,0,,,167.0,167,m.txt,138,gap,557,799
,undefined,fgap10.asc,0,0,2,0,,,196.0,196,m.txt,139,gap,533,824
TIMEOUT,undefined,fgap10.asc,0,61,4,0,TIMEOUT,20000,78.0,78,m.txt,140,control,499,395
CORRECT,undefined,fgap10.asc,0,5,2,0,m,4910,4.0,4,m.txt,141,control,520,310
CORRECT,undefined,fgap10.asc,0,10,1,0,z,2441,11.0,11,z.txt,142,control,542,665
CORRECT,undefined,fgap10.asc,0,17,4,0,m,6931,36.0,36,m.txt,143,control,1043,387
CORRECT,undefined,fgap10.asc,0,19,1,0,m,6649,70.0,70,m.txt,144,control,723,431
,undefined,fgap10.asc,0,0,2,0,,,186.0,186,m.txt,145,gap,1228,164
,undefined,fgap10.asc,0,0,1,0,,,84.0,84,z.txt,146,gap,638,832
,undefined,fgap10.asc,0,0,4,0,,,139.0,139,m.txt,147,gap,212,821
,undefined,fgap10.asc,0,0,1,0,,,25.0,25,z.txt,148,gap,637,556
,undefined,fgap10.asc,0,0,2,0,,,44.0,44,z.txt,149,gap,211,300
INCORRECT,undefined,fgap10.asc,0,64,2,0,m,18562,134.0,134,z.txt,150,control,774,571
CORRECT,undefined,fgap10.asc,0,8,2,0,z,3273,60.0,60,z.txt,151,control,444,415
INCORRECT,undefined,fgap10.asc,0,47,1,0,z,14981,182.0,182,m.txt,152,control,918,440
CORRECT,undefined,fgap10.asc,0,51,5,0,z,13823,120.0,120,z.txt,153,control,368,366
CORRECT,undefined,fgap10.asc,0,13,1,0,z,4615,56.0,56,z.txt,154,control,833,467
,undefined,fgap10.asc,0,0,4,0,,,137.0,137,m.txt,155,gap,714,131
,undefined,fgap10.asc,0,0,1,0,,,55.0,55,m.txt,156,gap,35,351
,undefined,fgap10.asc,0,0,2,0,,,48.0,48,m.txt,157,gap,453,709
,undefined,fgap10.asc,0,0,2,0,,,179.0,179,z.txt,158,gap,843,390
,undefined,fgap10.asc,0,0,1,0,,,188.0,188,m.txt,159,gap,542,564
TIMEOUT,undefined,fgap10.asc,0,65,3,0,TIMEOUT,20000,105.0,105,z.txt,160,control,418,347
CORRECT,undefined,fgap10.asc,0,27,3,0,m,8969,123.0,123,m.txt,161,control,124,576
CORRECT,undefined,fgap10.asc,0,18,2,0,m,5261,162.0,162,m.txt,162,control,254,744
TIMEOUT,undefined,fgap10.asc,0,66,2,0,TIMEOUT,20000,180.0,180,z.txt,163,control,1036,239
TIMEOUT,undefined,fgap10.asc,0,66,4,0,TIMEOUT,20000,94.0,94,m.txt,164,control,792,153
,undefined,fgap10.asc,0,0,18,0,,,15.0,15,z.txt,165,gap,27,41
,undefined,fgap10.asc,0,0,4,0,,,9.0,9,m.txt,166,gap,1141,151
,undefined,fgap10.asc,0,0,6,0,,,43.0,43,z.txt,167,gap,758,626
,undefined,fgap10.asc,0,0,3,0,,,159.0,159,m.txt,168,gap,191,753
,undefined,fgap10.asc,0,0,3,0,,,96.0,96,z.txt,169,gap,316,74
CORRECT,undefined,fgap10.asc,0,49,4,0,z,15074,24.0,24,z.txt,170,control,569,440
TIMEOUT,undefined,fgap10.asc,0,51,6,0,TIMEOUT,20000,63.0,63,m.txt,171,control,183,142
CORRECT,undefined,fgap10.asc,0,12,2,0,m,4907,150.0,150,m.txt,172,control,670,458
INCORRECT,undefined,fgap10.asc,0,10,2,0,m,4149,69.0,69,z.txt,173,control,645,476
CORRECT,undefined,fgap10.asc,0,46,4,0,m,14681,119.0,119,m.txt,174,control,423,816
,undefined,fgap10.asc,0,0,1,0,,,144.0,144,z.txt,175,gap,758,774
,undefined,fgap10.asc,0,0,3,0,,,152.0,152,m.txt,176,gap,826,718
,undefined,fgap10.asc,0,0,3,0,,,13.0,13,m.txt,177,gap,603,711
,undefined,fgap10.asc,0,0,3,0,,,1.0,1,z.txt,178,gap,941,527
,undefined,fgap10.asc,0,0,2,0,,,6.0,6,z.txt,179,gap,431,168
CORRECT,undefined,fgap10.asc,0,14,1,0,z,5271,173.0,173,z.txt,180,control,114,424
CORRECT,undefined,fgap10.asc,0,65,4,0,m,18910,20.0,20,m.txt,181,control,836,186
TIMEOUT,undefined,fgap10.asc,0,66,3,0,TIMEOUT,20000,3.0,3,z.txt,182,control,1247,644
TIMEOUT,undefined,fgap10.asc,0,66,3,0,TIMEOUT,20000,79.0,79,m.txt,183,control,793,624
TIMEOUT,undefined,fgap10.asc,0,65,3,0,TIMEOUT,20000,199.0,199,z.txt,184,control,679,413
,undefined,fgap10.asc,0,0,3,0,,,67.0,67,z.txt,185,gap,164,104
,undefined,fgap10.asc,0,0,1,0,,,143.0,143,z.txt,186,gap,662,418
,undefined,fgap10.asc,0,0,3,0,,,37.0,37,m.txt,187,gap,334,90
,undefined,fgap10.asc,0,0,5,0,,,73.0,73,m.txt,188,gap,635,788
,undefined,fgap10.asc,0,0,1,0,,,151.0,151,z.txt,189,gap,982,787
CORRECT,undefined,fgap10.asc,0,23,10,0,m,9920,61.0,61,m.txt,190,control,545,747
TIMEOUT,undefined,fgap10.asc,0,59,6,0,TIMEOUT,20000,72.0,72,z.txt,191,control,986,465
TIMEOUT,undefined,fgap10.asc,0,64,5,0,TIMEOUT,20000,124.0,124,m.txt,192,control,714,56
CORRECT,undefined,fgap10.asc,0,9,3,0,m,3086,45.0,45,m.txt,193,control,221,390
CORRECT,undefined,fgap10.asc,0,51,5,0,z,17202,175.0,175,z.txt,194,control,916,572
,undefined,fgap10.asc,0,0,4,0,,,23.0,23,m.txt,195,gap,148,488
,undefined,fgap10.asc,0,0,1,0,,,189.0,189,m.txt,196,gap,1187,635
,undefined,fgap10.asc,0,0,3,0,,,129.0,129,z.txt,197,gap,1222,780
,undefined,fgap10.asc,0,0,4,0,,,75.0,75,m.txt,198,gap,988,109
,undefined,fgap10.asc,0,0,5,0,,,71.0,71,z.txt,199,gap,795,343
TIMEOUT,undefined,fgap04.asc,0,55,5,0,TIMEOUT,20000,159.0,159,m.txt,0,control,191,753
CORRECT,undefined,fgap04.asc,0,27,9,0,m,10939,123.0,123,m.txt,1,control,124,576
CORRECT,undefined,fgap04.asc,0,30,3,0,m,12169,189.0,189,m.txt,2,control,1187,635
CORRECT,undefined,fgap04.asc,0,7,2,0,m,2489,141.0,141,m.txt,3,control,289,116
CORRECT,undefined,fgap04.asc,0,30,4,0,m,11819,150.0,150,m.txt,4,control,670,458
,undefined,fgap04.asc,0,0,4,0,,,184.0,184,z.txt,5,gap,925,220
,undefined,fgap04.asc,0,0,1,0,,,97.0,97,z.txt,6,gap,458,218
,undefined,fgap04.asc,0,0,11,0,,,199.0,199,z.txt,7,gap,679,413
,undefined,fgap04.asc,0,0,11,0,,,90.0,90,z.txt,8,gap,695,164
,undefined,fgap04.asc,0,0,15,0,,,157.0,157,z.txt,9,gap,60,170
CORRECT,undefined,fgap04.asc,0,41,4,0,m,14500,35.0,35,m.txt,10,control,23,354
TIMEOUT,undefined,fgap04.asc,0,58,5,0,TIMEOUT,20000,169.0,169,z.txt,11,control,140,405
CORRECT,undefined,fgap04.asc,0,51,4,0,m,18333,163.0,163,m.txt,12,control,365,264
CORRECT,undefined,fgap04.asc,0,14,4,0,m,6413,182.0,182,m.txt,13,control,918,440
TIMEOUT,undefined,fgap04.asc,0,53,6,0,TIMEOUT,20000,164.0,164,z.txt,14,control,35,42
,undefined,fgap04.asc,0,0,4,0,,,42.0,42,m.txt,15,gap,128,413
,undefined,fgap04.asc,0,0,7,0,,,65.0,65,m.txt,16,gap,277,612
,undefined,fgap04.asc,0,0,3,0,,,75.0,75,m.txt,17,gap,988,109
,undefined,fgap04.asc,0,0,4,0,,,128.0,128,z.txt,18,gap,1032,334
,undefined,fgap04.asc,0,0,3,0,,,113.0,113,z.txt,19,gap,1204,363
INCORRECT,undefined,fgap04.asc,0,23,4,0,z,9887,12.0,12,m.txt,20,control,588,70
TIMEOUT,undefined,fgap04.asc,0,53,2,0,TIMEOUT,20000,194.0,194,z.txt,21,control,580,702
CORRECT,undefined,fgap04.asc,0,43,5,0,z,18037,98.0,98,z.txt,22,control,1217,764
CORRECT,undefined,fgap04.asc,0,8,2,0,m,3524,37.0,37,m.txt,23,control,334,90
CORRECT,undefined,fgap04.asc,0,27,2,0,m,9913,114.0,114,m.txt,24,control,786,106
,undefined,fgap04.asc,0,0,2,0,,,2.0,2,m.txt,25,gap,454,514
,undefined,fgap04.asc,0,0,2,0,,,185.0,185,z.txt,26,gap,392,651
,undefined,fgap04.asc,0,0,1,0,,,165.0,165,m.txt,27,gap,1062,297
,undefined,fgap04.asc,0,0,1,0,,,4.0,4,m.txt,28,gap,520,310
,undefined,fgap04.asc,0,0,3,0,,,71.0,71,z.txt,29,gap,795,343
TIMEOUT,undefined,fgap04.asc,0,60,3,0,TIMEOUT,20000,26.0,26,m.txt,30,control,599,40
CORRECT,undefined,fgap04.asc,0,30,3,0,m,10767,100.0,100,m.txt,31,control,467,794
INCORRECT,undefined,fgap04.asc,0,37,3,0,m,15314,154.0,154,z.txt,32,control,136,459
CORRECT,undefined,fgap04.asc,0,1,2,0,z,1096,103.0,103,z.txt,33,control,622,480
CORRECT,undefined,fgap04.asc,0,11,0,0,m,4343,94.0,94,m.txt,34,control,792,153
,undefined,fgap04.asc,0,0,2,0,,,116.0,116,z.txt,35,gap,1191,694
,undefined,fgap04.asc,0,0,1,0,,,48.0,48,m.txt,36,gap,453,709
,undefined,fgap04.asc,0,0,5,0,,,143.0,143,z.txt,37,gap,662,418
,undefined,fgap04.asc,0,0,4,0,,,121.0,121,m.txt,38,gap,104,411
,undefined,fgap04.asc,0,0,1,0,,,131.0,131,z.txt,39,gap,1143,163
TIMEOUT,undefined,fgap04.asc,0,53,17,0,TIMEOUT,20000,192.0,192,z.txt,40,control,43,693
TIMEOUT,undefined,fgap04.asc,0,58,11,0,TIMEOUT,20000,14.0,14,m.txt,41,control,980,81
TIMEOUT,undefined,fgap04.asc,0,54,3,0,TIMEOUT,20000,101.0,101,m.txt,42,control,414,499
TIMEOUT,undefined,fgap04.asc,0,56,5,0,TIMEOUT,20000,69.0,69,z.txt,43,control,645,476
TIMEOUT,undefined,fgap04.asc,0,61,3,0,TIMEOUT,20000,160.0,160,z.txt,44,control,124,754
,undefined,fgap04.asc,0,0,1,0,,,87.0,87,m.txt,45,gap,387,336
,undefined,fgap04.asc,0,0,1,0,,,55.0,55,m.txt,46,gap,35,351
,undefined,fgap04.asc,0,0,2,0,,,180.0,180,z.txt,47,gap,1036,239
,undefined,fgap04.asc,0,0,2,0,,,10.0,10,m.txt,48,gap,634,337
,undefined,fgap04.asc,0,0,2,0,,,175.0,175,z.txt,49,gap,916,572
TIMEOUT,undefined,fgap04.asc,0,55,1,0,TIMEOUT,20000,129.0,129,z.txt,50,control,1222,780
CORRECT,undefined,fgap04.asc,0,36,1,0,z,14052,181.0,181,z.txt,51,control,1143,206
CORRECT,undefined,fgap04.asc,0,7,2,0,m,3674,23.0,23,m.txt,52,control,148,488
CORRECT,undefined,fgap04.asc,0,4,1,0,m,3341,52.0,52,m.txt,53,control,1117,166
TIMEOUT,undefined,fgap04.asc,0,57,0,0,TIMEOUT,20000,6.0,6,z.txt,54,control,431,168
,undefined,fgap04.asc,0,0,1,0,,,124.0,124,m.txt,55,gap,714,56
,undefined,fgap04.asc,0,0,3,0,,,119.0,119,m.txt,56,gap,423,816
,undefined,fgap04.asc,0,0,1,0,,,68.0,68,z.txt,57,gap,1191,444
,undefined,fgap04.asc,0,0,1,0,,,31.0,31,m.txt,58,gap,1249,470
,undefined,fgap04.asc,0,0,1,0,,,47.0,47,m.txt,59,gap,244,591
TIMEOUT,undefined,fgap04.asc,0,55,3,0,TIMEOUT,20000,107.0,107,z.txt,60,control,867,69
TIMEOUT,undefined,fgap04.asc,0,56,3,0,TIMEOUT,20000,109.0,109,m.txt,61,control,1246,279
TIMEOUT,undefined,fgap04.asc,0,56,1,0,TIMEOUT,20000,167.0,167,m.txt,62,control,557,799
TIMEOUT,undefined,fgap04.asc,0,51,2,0,TIMEOUT,20000,195.0,195,z.txt,63,control,309,49
TIMEOUT,undefined,fgap04.asc,0,54,4,0,TIMEOUT,20000,79.0,79,m.txt,64,control,793,624
,undefined,fgap04.asc,0,0,4,0,,,156.0,156,z.txt,65,gap,1086,610
,undefined,fgap04.asc,0,0,3,0,,,105.0,105,z.txt,66,gap,418,347
,undefined,fgap04.asc,0,0,5,0,,,1.0,1,z.txt,67,gap,941,527
,undefined,fgap04.asc,0,0,0,0,,,108.0,108,m.txt,68,gap,846,143
,undefined,fgap04.asc,0,0,0,0,,,91.0,91,m.txt,69,gap,710,431
CORRECT,undefined,fgap04.asc,0,30,0,0,m,11004,36.0,36,m.txt,70,control,1043,387
TIMEOUT,undefined,fgap04.asc,0,55,1,0,TIMEOUT,20000,66.0,66,m.txt,71,control,1204,266
TIMEOUT,undefined,fgap04.asc,0,56,3,0,TIMEOUT,20000,43.0,43,z.txt,72,control,758,626
CORRECT,undefined,fgap04.asc,0,19,0,0,m,8718,73.0,73,m.txt,73,control,635,788
TIMEOUT,undefined,fgap04.asc,0,54,1,0,TIMEOUT,20000,22.0,22,m.txt,74,control,802,432
,undefined,fgap04.asc,0,0,4,0,,,162.0,162,m.txt,75,gap,254,744
,undefined,fgap04.asc,0,0,2,0,,,122.0,122,z.txt,76,gap,252,781
,undefined,fgap04.asc,0,0,2,0,,,85.0,85,m.txt,77,gap,1015,549
,undefined,fgap04.asc,0,0,3,0,,,147.0,147,z.txt,78,gap,1205,601
,undefined,fgap04.asc,0,0,1,0,,,5.0,5,m.txt,79,gap,396,111
CORRECT,undefined,fgap04.asc,0,6,1,0,m,2378,178.0,178,m.txt,80,control,218,557
CORRECT,undefined,fgap04.asc,0,29,1,0,m,11340,61.0,61,m.txt,81,control,545,747
TIMEOUT,undefined,fgap04.asc,0,55,3,0,TIMEOUT,20000,80.0,80,z.txt,82,control,73,80
CORRECT,undefined,fgap04.asc,0,42,1,0,m,16841,146.0,146,m.txt,83,control,916,26
TIMEOUT,undefined,fgap04.asc,0,58,1,0,TIMEOUT,20000,89.0,89,z.txt,84,control,346,587
,undefined,fgap04.asc,0,0,1,0,,,86.0,86,z.txt,85,gap,115,573
,undefined,fgap04.asc,0,0,10,0,,,126.0,126,z.txt,86,gap,281,758
,undefined,fgap04.asc,0,0,12,0,,,174.0,174,z.txt,87,gap,808,418
,undefined,fgap04.asc,0,0,5,0,,,81.0,81,z.txt,88,gap,323,441
,undefined,fgap04.asc,0,0,0,0,,,67.0,67,z.txt,89,gap,164,104
TIMEOUT,undefined,fgap04.asc,0,53,3,0,TIMEOUT,20000,88.0,88,z.txt,90,control,226,441
CORRECT,undefined,fgap04.asc,0,4,0,0,m,1649,76.0,76,m.txt,91,control,121,80
CORRECT,undefined,fgap04.asc,0,40,4,0,z,15373,38.0,38,z.txt,92,control,754,358
CORRECT,undefined,fgap04.asc,0,9,1,0,m,4610,45.0,45,m.txt,93,control,221,390
CORRECT,undefined,fgap04.asc,0,50,3,0,m,19178,152.0,152,m.txt,94,control,826,718
,undefined,fgap04.asc,0,0,1,0,,,120.0,120,z.txt,95,gap,368,366
,undefined,fgap04.asc,0,0,0,0,,,173.0,173,z.txt,96,gap,114,424
,undefined,fgap04.asc,0,0,5,0,,,186.0,186,m.txt,97,gap,1228,164
,undefined,fgap04.asc,0,0,2,0,,,171.0,171,z.txt,98,gap,463,485
,undefined,fgap04.asc,0,0,1,0,,,198.0,198,z.txt,99,gap,1159,91
CORRECT,undefined,fgap04.asc,0,4,1,0,z,1799,191.0,191,z.txt,100,control,1244,134
CORRECT,undefined,fgap04.asc,0,9,1,0,z,2974,8.0,8,z.txt,101,control,59,74
TIMEOUT,undefined,fgap04.asc,0,53,1,0,TIMEOUT,20000,70.0,70,m.txt,102,control,723,431
TIMEOUT,undefined,fgap04.asc,0,54,1,0,TIMEOUT,20000,161.0,161,z.txt,103,control,427,254
TIMEOUT,undefined,fgap04.asc,0,59,2,0,TIMEOUT,20000,20.0,20,m.txt,104,control,836,186
,undefined,fgap04.asc,0,0,0,0,,,197.0,197,m.txt,105,gap,670,577
,undefined,fgap04.asc,0,0,1,0,,,177.0,177,z.txt,106,gap,350,54
,undefined,fgap04.asc,0,0,0,0,,,21.0,21,z.txt,107,gap,83,409
,undefined,fgap04.asc,0,0,6,0,,,102.0,102,z.txt,108,gap,229,617
,undefined,fgap04.asc,0,0,1,0,,,56.0,56,z.txt,109,gap,833,467
INCORRECT,undefined,fgap04.asc,0,36,1,0,m,15264,15.0,15,z.txt,110,control,27,41
CORRECT,undefined,fgap04.asc,0,32,1,0,m,13311,51.0,51,m.txt,111,control,1102,315
CORRECT,undefined,fgap04.asc,0,19,1,0,m,7616,155.0,155,m.txt,112,control,1135,466
TIMEOUT,undefined,fgap04.asc,0,53,2,0,TIMEOUT,20000,139.0,139,m.txt,113,control,212,821
TIMEOUT,undefined,fgap04.asc,0,49,2,0,TIMEOUT,20000,39.0,39,m.txt,114,control,125,335
,undefined,fgap04.asc,0,0,1,0,,,153.0,153,m.txt,115,gap,649,123
,undefined,fgap04.asc,0,0,3,0,,,142.0,142,m.txt,116,gap,455,793
,undefined,fgap04.asc,0,0,1,0,,,62.0,62,m.txt,117,gap,240,302
,undefined,fgap04.asc,0,0,0,0,,,49.0,49,z.txt,118,gap,990,497
,undefined,fgap04.asc,0,0,0,0,,,0.0,0,m.txt,119,gap,957,673
TIMEOUT,undefined,fgap04.asc,0,53,0,0,TIMEOUT,20000,127.0,127,m.txt,120,control,599,82
CORRECT,undefined,fgap04.asc,0,24,7,0,z,10160,96.0,96,z.txt,121,control,316,74
CORRECT,undefined,fgap04.asc,0,31,2,0,m,13177,188.0,188,m.txt,122,control,542,564
CORRECT,undefined,fgap04.asc,0,15,1,0,m,6797,149.0,149,m.txt,123,control,200,415
CORRECT,undefined,fgap04.asc,0,35,1,0,m,13628,46.0,46,m.txt,124,control,1223,420
,undefined,fgap04.asc,0,0,0,0,,,13.0,13,m.txt,125,gap,603,711
,undefined,fgap04.asc,0,0,1,0,,,125.0,125,m.txt,126,gap,1151,540
,undefined,fgap04.asc,0,0,0,0,,,99.0,99,m.txt,127,gap,349,443
,undefined,fgap04.asc,0,0,2,0,,,170.0,170,z.txt,128,gap,552,139
,undefined,fgap04.asc,0,0,1,0,,,11.0,11,z.txt,129,gap,542,665
TIMEOUT,undefined,fgap04.asc,0,55,1,0,TIMEOUT,20000,83.0,83,z.txt,130,control,843,100
CORRECT,undefined,fgap04.asc,0,28,1,0,z,10394,27.0,27,z.txt,131,control,641,31
CORRECT,undefined,fgap04.asc,0,4,1,0,z,2856,59.0,59,z.txt,132,control,448,433
CORRECT,undefined,fgap04.asc,0,6,1,0,m,2422,137.0,137,m.txt,133,control,714,131
TIMEOUT,undefined,fgap04.asc,0,53,1,0,TIMEOUT,20000,118.0,118,z.txt,134,control,1095,238
,undefined,fgap04.asc,0,0,2,0,,,19.0,19,z.txt,135,gap,891,379
,undefined,fgap04.asc,0,0,1,0,,,196.0,196,m.txt,136,gap,533,824
,undefined,fgap04.asc,0,0,3,0,,,115.0,115,z.txt,137,gap,91,286
,undefined,fgap04.asc,0,0,1,0,,,135.0,135,z.txt,138,gap,72,93
,undefined,fgap04.asc,0,0,0,0,,,9.0,9,m.txt,139,gap,1141,151
TIMEOUT,undefined,fgap04.asc,0,54,1,0,TIMEOUT,20000,77.0,77,z.txt,140,control,1220,595
TIMEOUT,undefined,fgap04.asc,0,51,0,0,TIMEOUT,20000,193.0,193,z.txt,141,control,541,487
CORRECT,undefined,fgap04.asc,0,30,2,0,z,10802,40.0,40,z.txt,142,control,1205,358
TIMEOUT,undefined,fgap04.asc,0,57,1,0,TIMEOUT,20000,179.0,179,z.txt,143,control,843,390
TIMEOUT,undefined,fgap04.asc,0,57,0,0,TIMEOUT,20000,187.0,187,z.txt,144,control,670,385
,undefined,fgap04.asc,0,0,1,0,,,183.0,183,m.txt,145,gap,277,464
,undefined,fgap04.asc,0,0,0,0,,,41.0,41,z.txt,146,gap,999,230
,undefined,fgap04.asc,0,0,1,0,,,30.0,30,z.txt,147,gap,92,583
,undefined,fgap04.asc,0,0,10,0,,,130.0,130,m.txt,148,gap,20,274
,undefined,fgap04.asc,0,0,5,0,,,133.0,133,z.txt,149,gap,31,671
CORRECT,undefined,fgap04.asc,0,31,4,0,m,12342,190.0,190,m.txt,150,control,815,37
CORRECT,undefined,fgap04.asc,0,27,1,0,m,10939,166.0,166,m.txt,151,control,505,453
CORRECT,undefined,fgap04.asc,0,6,0,0,m,2229,136.0,136,m.txt,152,control,37,407
CORRECT,undefined,fgap04.asc,0,19,1,0,m,7278,29.0,29,m.txt,153,control,466,109
CORRECT,undefined,fgap04.asc,0,5,0,0,z,1616,44.0,44,z.txt,154,control,211,300
,undefined,fgap04.asc,0,0,3,0,,,134.0,134,z.txt,155,gap,774,571
,undefined,fgap04.asc,0,0,2,0,,,95.0,95,z.txt,156,gap,719,168
,undefined,fgap04.asc,0,0,1,0,,,7.0,7,z.txt,157,gap,459,246
,undefined,fgap04.asc,0,0,1,0,,,82.0,82,m.txt,158,gap,1251,511
,undefined,fgap04.asc,0,0,0,0,,,144.0,144,z.txt,159,gap,758,774
CORRECT,undefined,fgap04.asc,0,20,1,0,z,7883,60.0,60,z.txt,160,control,444,415
TIMEOUT,undefined,fgap04.asc,0,48,3,0,TIMEOUT,20000,57.0,57,z.txt,161,control,741,242
INCORRECT,undefined,fgap04.asc,0,34,1,0,m,13878,138.0,138,z.txt,162,control,390,533
CORRECT,undefined,fgap04.asc,0,9,0,0,m,5044,53.0,53,m.txt,163,control,704,528
CORRECT,undefined,fgap04.asc,0,25,2,0,m,11072,34.0,34,m.txt,164,control,1240,437
,undefined,fgap04.asc,0,0,1,0,,,78.0,78,m.txt,165,gap,499,395
,undefined,fgap04.asc,0,0,1,0,,,25.0,25,z.txt,166,gap,637,556
,undefined,fgap04.asc,0,0,0,0,,,17.0,17,m.txt,167,gap,997,424
,undefined,fgap04.asc,0,0,2,0,,,3.0,3,z.txt,168,gap,1247,644
,undefined,fgap04.asc,0,0,3,0,,,74.0,74,z.txt,169,gap,230,639
CORRECT,undefined,fgap04.asc,0,24,1,0,z,10322,28.0,28,z.txt,170,control,845,591
TIMEOUT,undefined,fgap04.asc,0,55,4,0,TIMEOUT,20000,112.0,112,z.txt,171,control,348,830
TIMEOUT,undefined,fgap04.asc,0,53,4,0,TIMEOUT,20000,33.0,33,m.txt,172,control,49,414
TIMEOUT,undefined,fgap04.asc,0,57,4,0,TIMEOUT,20000,50.0,50,z.txt,173,control,225,108
CORRECT,undefined,fgap04.asc,0,17,2,0,z,6870,168.0,168,z.txt,174,control,535,475
,undefined,fgap04.asc,0,0,2,0,,,117.0,117,z.txt,175,gap,735,429
,undefined,fgap04.asc,0,0,1,0,,,132.0,132,m.txt,176,gap,102,531
,undefined,fgap04.asc,0,0,1,0,,,111.0,111,z.txt,177,gap,501,242
,undefined,fgap04.asc,0,0,0,0,,,64.0,64,z.txt,178,gap,444,775
,undefined,fgap04.asc,0,0,2,0,,,176.0,176,m.txt,179,gap,1003,675
TIMEOUT,undefined,fgap04.asc,0,50,0,0,TIMEOUT,20000,54.0,54,z.txt,180,control,284,188
CORRECT,undefined,fgap04.asc,0,6,2,0,m,2581,104.0,104,m.txt,181,control,943,79
CORRECT,undefined,fgap04.asc,0,5,1,0,m,2922,106.0,106,m.txt,182,control,688,481
TIMEOUT,undefined,fgap04.asc,0,47,2,0,TIMEOUT,20000,58.0,58,z.txt,183,control,1235,140
CORRECT,undefined,fgap04.asc,0,8,1,0,z,4276,158.0,158,z.txt,184,control,1223,357
,undefined,fgap04.asc,0,0,2,0,,,84.0,84,z.txt,185,gap,638,832
,undefined,fgap04.asc,0,0,3,0,,,16.0,16,z.txt,186,gap,345,487
,undefined,fgap04.asc,0,0,1,0,,,18.0,18,m.txt,187,gap,536,202
,undefined,fgap04.asc,0,0,4,0,,,93.0,93,z.txt,188,gap,560,106
,undefined,fgap04.asc,0,0,1,0,,,140.0,140,m.txt,189,gap,630,101
TIMEOUT,undefined,fgap04.asc,0,54,2,0,TIMEOUT,20000,110.0,110,z.txt,190,control,161,55
CORRECT,undefined,fgap04.asc,0,4,1,0,z,2539,72.0,72,z.txt,191,control,986,465
CORRECT,undefined,fgap04.asc,0,21,1,0,m,8278,145.0,145,m.txt,192,control,172,58
CORRECT,undefined,fgap04.asc,0,8,1,0,z,3494,151.0,151,z.txt,193,control,982,787
TIMEOUT,undefined,fgap04.asc,0,52,2,0,TIMEOUT,20000,24.0,24,z.txt,194,control,569,440
,undefined,fgap04.asc,0,0,2,0,,,32.0,32,m.txt,195,gap,220,283
,undefined,fgap04.asc,0,0,3,0,,,172.0,172,m.txt,196,gap,1039,742
,undefined,fgap04.asc,0,0,1,0,,,63.0,63,m.txt,197,gap,183,142
,undefined,fgap04.asc,0,0,2,0,,,92.0,92,m.txt,198,gap,64,707
,undefined,fgap04.asc,0,0,7,0,,,148.0,148,z.txt,199,gap,412,666
TIMEOUT,undefined,fgap11.asc,0,64,0,0,TIMEOUT,20000,75.0,75,m.txt,0,control,988,109
CORRECT,undefined,fgap11.asc,0,15,1,0,m,4760,37.0,37,m.txt,1,control,334,90
CORRECT,undefined,fgap11.asc,0,25,1,0,z,8034,158.0,158,z.txt,2,control,1223,357
CORRECT,undefined,fgap11.asc,0,54,1,0,m,18387,29.0,29,m.txt,3,control,466,109
TIMEOUT,undefined,fgap11.asc,0,64,2,0,TIMEOUT,20000,115.0,115,z.txt,4,control,91,286
,undefined,fgap11.asc,0,0,3,0,,,179.0,179,z.txt,5,gap,843,390
,undefined,fgap11.asc,0,0,1,0,,,189.0,189,m.txt,6,gap,1187,635
,undefined,fgap11.asc,0,0,1,0,,,40.0,40,z.txt,7,gap,1205,358
,undefined,fgap11.asc,0,0,0,0,,,33.0,33,m.txt,8,gap,49,414
,undefined,fgap11.asc,0,0,0,0,,,184.0,184,z.txt,9,gap,925,220
CORRECT,undefined,fgap11.asc,0,26,0,0,z,8634,30.0,30,z.txt,10,control,92,583
TIMEOUT,undefined,fgap11.asc,0,71,2,0,TIMEOUT,20000,194.0,194,z.txt,11,control,580,702
TIMEOUT,undefined,fgap11.asc,0,58,0,0,TIMEOUT,20000,2.0,2,m.txt,12,control,454,514
TIMEOUT,undefined,fgap11.asc,0,61,0,0,TIMEOUT,20000,121.0,121,m.txt,13,control,104,411
TIMEOUT,undefined,fgap11.asc,0,74,1,0,TIMEOUT,20000,171.0,171,z.txt,14,control,463,485
,undefined,fgap11.asc,0,0,1,0,,,27.0,27,z.txt,15,gap,641,31
,undefined,fgap11.asc,0,0,1,0,,,193.0,193,z.txt,16,gap,541,487
,undefined,fgap11.asc,0,0,2,0,,,17.0,17,m.txt,17,gap,997,424
,undefined,fgap11.asc,0,0,0,0,,,112.0,112,z.txt,18,gap,348,830
,undefined,fgap11.asc,0,0,1,0,,,8.0,8,z.txt,19,gap,59,74
CORRECT,undefined,fgap11.asc,0,34,1,0,m,12710,186.0,186,m.txt,20,control,1228,164
INCORRECT,undefined,fgap11.asc,0,53,1,0,z,18154,132.0,132,m.txt,21,control,102,531
TIMEOUT,undefined,fgap11.asc,0,61,1,0,TIMEOUT,20000,19.0,19,z.txt,22,control,891,379
TIMEOUT,undefined,fgap11.asc,0,68,2,0,TIMEOUT,20000,54.0,54,z.txt,23,control,284,188
CORRECT,undefined,fgap11.asc,0,11,0,0,z,2798,191.0,191,z.txt,24,control,1244,134
,undefined,fgap11.asc,0,0,1,0,,,21.0,21,z.txt,25,gap,83,409
,undefined,fgap11.asc,0,0,3,0,,,15.0,15,z.txt,26,gap,27,41
,undefined,fgap11.asc,0,0,0,0,,,165.0,165,m.txt,27,gap,1062,297
,undefined,fgap11.asc,0,0,1,0,,,88.0,88,z.txt,28,gap,226,441
,undefined,fgap11.asc,0,0,2,0,,,154.0,154,z.txt,29,gap,136,459
TIMEOUT,undefined,fgap11.asc,0,71,4,0,TIMEOUT,20000,182.0,182,m.txt,30,control,918,440
TIMEOUT,undefined,fgap11.asc,0,60,1,0,TIMEOUT,20000,196.0,196,m.txt,31,control,533,824
CORRECT,undefined,fgap11.asc,0,36,1,0,m,12074,172.0,172,m.txt,32,control,1039,742
CORRECT,undefined,fgap11.asc,0,54,1,0,z,16099,144.0,144,z.txt,33,control,758,774
TIMEOUT,undefined,fgap11.asc,0,70,0,0,TIMEOUT,20000,185.0,185,z.txt,34,control,392,651
,undefined,fgap11.asc,0,0,3,0,,,71.0,71,z.txt,35,gap,795,343
,undefined,fgap11.asc,0,0,1,0,,,131.0,131,z.txt,36,gap,1143,163
,undefined,fgap11.asc,0,0,2,0,,,23.0,23,m.txt,37,gap,148,488
,undefined,fgap11.asc,0,0,1,0,,,188.0,188,m.txt,38,gap,542,564
,undefined,fgap11.asc,0,0,2,0,,,77.0,77,z.txt,39,gap,1220,595
TIMEOUT,undefined,fgap11.asc,0,66,1,0,TIMEOUT,20000,96.0,96,z.txt,40,control,316,74
TIMEOUT,undefined,fgap11.asc,0,65,5,0,TIMEOUT,20000,59.0,59,z.txt,41,control,448,433
TIMEOUT,undefined,fgap11.asc,0,68,9,0,TIMEOUT,20000,7.0,7,z.txt,42,control,459,246
TIMEOUT,undefined,fgap11.asc,0,70,1,0,TIMEOUT,20000,192.0,192,z.txt,43,control,43,693
TIMEOUT,undefined,fgap11.asc,0,63,2,0,TIMEOUT,20000,80.0,80,z.txt,44,control,73,80
,undefined,fgap11.asc,0,0,1,0,,,149.0,149,m.txt,45,gap,200,415
,undefined,fgap11.asc,0,0,3,0,,,72.0,72,z.txt,46,gap,986,465
,undefined,fgap11.asc,0,0,2,0,,,140.0,140,m.txt,47,gap,630,101
,undefined,fgap11.asc,0,0,4,0,,,51.0,51,m.txt,48,gap,1102,315
,undefined,fgap11.asc,0,0,5,0,,,41.0,41,z.txt,49,gap,999,230
TIMEOUT,undefined,fgap11.asc,0,67,0,0,TIMEOUT,20000,136.0,136,m.txt,50,control,37,407
TIMEOUT,undefined,fgap11.asc,0,67,0,0,TIMEOUT,20000,84.0,84,z.txt,51,control,638,832
TIMEOUT,undefined,fgap11.asc,0,60,1,0,TIMEOUT,20000,66.0,66,m.txt,52,control,1204,266
CORRECT,undefined,fgap11.asc,0,29,4,0,m,9549,104.0,104,m.txt,53,control,943,79
TIMEOUT,undefined,fgap11.asc,0,63,1,0,TIMEOUT,20000,64.0,64,z.txt,54,control,444,775
,undefined,fgap11.asc,0,0,1,0,,,9.0,9,m.txt,55,gap,1141,151
,undefined,fgap11.asc,0,0,3,0,,,10.0,10,m.txt,56,gap,634,337
,undefined,fgap11.asc,0,0,3,0,,,150.0,150,m.txt,57,gap,670,458
,undefined,fgap11.asc,0,0,1,0,,,157.0,157,z.txt,58,gap,60,170
,undefined,fgap11.asc,0,0,1,0,,,137.0,137,m.txt,59,gap,714,131
TIMEOUT,undefined,fgap11.asc,0,66,1,0,TIMEOUT,20000,169.0,169,z.txt,60,control,140,405
TIMEOUT,undefined,fgap11.asc,0,62,1,0,TIMEOUT,20000,126.0,126,z.txt,61,control,281,758
TIMEOUT,undefined,fgap11.asc,0,70,0,0,TIMEOUT,20000,163.0,163,m.txt,62,control,365,264
CORRECT,undefined,fgap11.asc,0,6,3,0,m,3558,190.0,190,m.txt,63,control,815,37
TIMEOUT,undefined,fgap11.asc,0,57,1,0,TIMEOUT,20000,52.0,52,m.txt,64,control,1117,166
,undefined,fgap11.asc,0,0,1,0,,,28.0,28,z.txt,65,gap,845,591
,undefined,fgap11.asc,0,0,1,0,,,187.0,187,z.txt,66,gap,670,385
,undefined,fgap11.asc,0,0,0,0,,,35.0,35,m.txt,67,gap,23,354
,undefined,fgap11.asc,0,0,7,0,,,199.0,199,z.txt,68,gap,679,413
,undefined,fgap11.asc,0,0,10,0,,,39.0,39,m.txt,69,gap,125,335
TIMEOUT,undefined,fgap11.asc,0,71,9,0,TIMEOUT,20000,81.0,81,z.txt,70,control,323,441
TIMEOUT,undefined,fgap11.asc,0,62,2,0,TIMEOUT,20000,50.0,50,z.txt,71,control,225,108
TIMEOUT,undefined,fgap11.asc,0,67,4,0,TIMEOUT,20000,45.0,45,m.txt,72,control,221,390
TIMEOUT,undefined,fgap11.asc,0,61,1,0,TIMEOUT,20000,82.0,82,m.txt,73,control,1251,511
TIMEOUT,undefined,fgap11.asc,0,62,1,0,TIMEOUT,20000,148.0,148,z.txt,74,control,412,666
,undefined,fgap11.asc,0,0,1,0,,,175.0,175,z.txt,75,gap,916,572
,undefined,fgap11.asc,0,0,4,0,,,56.0,56,z.txt,76,gap,833,467
,undefined,fgap11.asc,0,0,7,0,,,53.0,53,m.txt,77,gap,704,528
,undefined,fgap11.asc,0,0,2,0,,,164.0,164,z.txt,78,gap,35,42
,undefined,fgap11.asc,0,0,1,0,,,22.0,22,m.txt,79,gap,802,432
CORRECT,undefined,fgap11.asc,0,26,3,0,z,10271,44.0,44,z.txt,80,control,211,300
TIMEOUT,undefined,fgap11.asc,0,64,1,0,TIMEOUT,20000,3.0,3,z.txt,81,control,1247,644
TIMEOUT,undefined,fgap11.asc,0,64,2,0,TIMEOUT,20000,139.0,139,m.txt,82,control,212,821
TIMEOUT,undefined,fgap11.asc,0,57,0,0,TIMEOUT,20000,98.0,98,z.txt,83,control,1217,764
TIMEOUT,undefined,fgap11.asc,0,53,0,0,TIMEOUT,20000,183.0,183,m.txt,84,control,277,464
,undefined,fgap11.asc,0,0,0,0,,,92.0,92,m.txt,85,gap,64,707
,undefined,fgap11.asc,0,0,3,0,,,103.0,103,z.txt,86,gap,622,480
,undefined,fgap11.asc,0,0,4,0,,,174.0,174,z.txt,87,gap,808,418
,undefined,fgap11.asc,0,0,11,0,,,76.0,76,m.txt,88,gap,121,80
,undefined,fgap11.asc,0,0,2,0,,,49.0,49,z.txt,89,gap,990,497
TIMEOUT,undefined,fgap11.asc,0,68,1,0,TIMEOUT,20000,102.0,102,z.txt,90,control,229,617
CORRECT,undefined,fgap11.asc,0,3,2,0,z,1754,117.0,117,z.txt,91,control,735,429
TIMEOUT,undefined,fgap11.asc,0,58,1,0,TIMEOUT,20000,1.0,1,z.txt,92,control,941,527
TIMEOUT,undefined,fgap11.asc,0,68,3,0,TIMEOUT,20000,110.0,110,z.txt,93,control,161,55
CORRECT,undefined,fgap11.asc,0,32,3,0,z,11753,86.0,86,z.txt,94,control,115,573
,undefined,fgap11.asc,0,0,2,0,,,12.0,12,m.txt,95,gap,588,70
,undefined,fgap11.asc,0,0,1,0,,,159.0,159,m.txt,96,gap,191,753
,undefined,fgap11.asc,0,0,0,0,,,67.0,67,z.txt,97,gap,164,104
,undefined,fgap11.asc,0,0,4,0,,,95.0,95,z.txt,98,gap,719,168
,undefined,fgap11.asc,0,0,6,0,,,13.0,13,m.txt,99,gap,603,711
TIMEOUT,undefined,fgap11.asc,0,62,5,0,TIMEOUT,20000,18.0,18,m.txt,100,control,536,202
TIMEOUT,undefined,fgap11.asc,0,60,0,0,TIMEOUT,20000,16.0,16,z.txt,101,control,345,487
TIMEOUT,undefined,fgap11.asc,0,61,0,0,TIMEOUT,20000,57.0,57,z.txt,102,control,741,242
TIMEOUT,undefined,fgap11.asc,0,60,0,0,TIMEOUT,20000,118.0,118,z.txt,103,control,1095,238
TIMEOUT,undefined,fgap11.asc,0,65,6,0,TIMEOUT,20000,34.0,34,m.txt,104,control,1240,437
,undefined,fgap11.asc,0,0,2,0,,,85.0,85,m.txt,105,gap,1015,549
,undefined,fgap11.asc,0,0,2,0,,,152.0,152,m.txt,106,gap,826,718
,undefined,fgap11.asc,0,0,2,0,,,155.0,155,m.txt,107,gap,1135,466
,undefined,fgap11.asc,0,0,1,0,,,161.0,161,z.txt,108,gap,427,254
,undefined,fgap11.asc,0,0,1,0,,,138.0,138,z.txt,109,gap,390,533
TIMEOUT,undefined,fgap11.asc,0,64,1,0,TIMEOUT,20000,93.0,93,z.txt,110,control,560,106
TIMEOUT,undefined,fgap11.asc,0,64,12,0,TIMEOUT,20000,198.0,198,z.txt,111,control,1159,91
TIMEOUT,undefined,fgap11.asc,0,59,3,0,TIMEOUT,20000,83.0,83,z.txt,112,control,843,100
TIMEOUT,undefined,fgap11.asc,0,61,11,0,TIMEOUT,20000,94.0,94,m.txt,113,control,792,153
TIMEOUT,undefined,fgap11.asc,0,54,3,0,TIMEOUT,20000,141.0,141,m.txt,114,control,289,116
,undefined,fgap11.asc,0,0,1,0,,,105.0,105,z.txt,115,gap,418,347
,undefined,fgap11.asc,0,0,4,0,,,153.0,153,m.txt,116,gap,649,123
,undefined,fgap11.asc,0,0,0,0,,,4.0,4,m.txt,117,gap,520,310
,undefined,fgap11.asc,0,0,2,0,,,116.0,116,z.txt,118,gap,1191,694
,undefined,fgap11.asc,0,0,2,0,,,31.0,31,m.txt,119,gap,1249,470
TIMEOUT,undefined,fgap11.asc,0,69,3,0,TIMEOUT,20000,6.0,6,z.txt,120,control,431,168
TIMEOUT,undefined,fgap11.asc,0,64,6,0,TIMEOUT,20000,47.0,47,m.txt,121,control,244,591
TIMEOUT,undefined,fgap11.asc,0,64,1,0,TIMEOUT,20000,195.0,195,z.txt,122,control,309,49
CORRECT,undefined,fgap11.asc,0,34,0,0,m,10823,119.0,119,m.txt,123,control,423,816
TIMEOUT,undefined,fgap11.asc,0,64,0,0,TIMEOUT,20000,63.0,63,m.txt,124,control,183,142
,undefined,fgap11.asc,0,0,0,0,,,129.0,129,z.txt,125,gap,1222,780
,undefined,fgap11.asc,0,0,4,0,,,178.0,178,m.txt,126,gap,218,557
,undefined,fgap11.asc,0,0,1,0,,,147.0,147,z.txt,127,gap,1205,601
,undefined,fgap11.asc,0,0,2,0,,,133.0,133,z.txt,128,gap,31,671
,undefined,fgap11.asc,0,0,6,0,,,168.0,168,z.txt,129,gap,535,475
TIMEOUT,undefined,fgap11.asc,0,57,0,0,TIMEOUT,20000,36.0,36,m.txt,130,control,1043,387
TIMEOUT,undefined,fgap11.asc,0,58,4,0,TIMEOUT,20000,91.0,91,m.txt,131,control,710,431
TIMEOUT,undefined,fgap11.asc,0,59,6,0,TIMEOUT,20000,111.0,111,z.txt,132,control,501,242
TIMEOUT,undefined,fgap11.asc,0,65,1,0,TIMEOUT,20000,24.0,24,z.txt,133,control,569,440
CORRECT,undefined,fgap11.asc,0,29,5,0,m,8718,197.0,197,m.txt,134,control,670,577
,undefined,fgap11.asc,0,0,2,0,,,11.0,11,z.txt,135,gap,542,665
,undefined,fgap11.asc,0,0,1,0,,,87.0,87,m.txt,136,gap,387,336
,undefined,fgap11.asc,0,0,3,0,,,42.0,42,m.txt,137,gap,128,413
,undefined,fgap11.asc,0,0,2,0,,,58.0,58,z.txt,138,gap,1235,140
,undefined,fgap11.asc,0,0,1,0,,,79.0,79,m.txt,139,gap,793,624
CORRECT,undefined,fgap11.asc,0,56,3,0,z,17424,89.0,89,z.txt,140,control,346,587
TIMEOUT,undefined,fgap11.asc,0,68,6,0,TIMEOUT,20000,173.0,173,z.txt,141,control,114,424
TIMEOUT,undefined,fgap11.asc,0,57,0,0,TIMEOUT,20000,113.0,113,z.txt,142,control,1204,363
TIMEOUT,undefined,fgap11.asc,0,56,4,0,TIMEOUT,20000,65.0,65,m.txt,143,control,277,612
CORRECT,undefined,fgap11.asc,0,48,4,0,z,16472,128.0,128,z.txt,144,control,1032,334
,undefined,fgap11.asc,0,0,0,0,,,127.0,127,m.txt,145,gap,599,82
,undefined,fgap11.asc,0,0,1,0,,,60.0,60,z.txt,146,gap,444,415
,undefined,fgap11.asc,0,0,2,0,,,160.0,160,z.txt,147,gap,124,754
,undefined,fgap11.asc,0,0,0,0,,,46.0,46,m.txt,148,gap,1223,420
,undefined,fgap11.asc,0,0,3,0,,,101.0,101,m.txt,149,gap,414,499
TIMEOUT,undefined,fgap11.asc,0,63,8,0,TIMEOUT,20000,74.0,74,z.txt,150,control,230,639
TIMEOUT,undefined,fgap11.asc,0,58,1,0,TIMEOUT,20000,124.0,124,m.txt,151,control,714,56
TIMEOUT,undefined,fgap11.asc,0,63,3,0,TIMEOUT,20000,180.0,180,z.txt,152,control,1036,239
TIMEOUT,undefined,fgap11.asc,0,65,0,0,TIMEOUT,20000,109.0,109,m.txt,153,control,1246,279
CORRECT,undefined,fgap11.asc,0,44,1,0,m,14594,48.0,48,m.txt,154,control,453,709
,undefined,fgap11.asc,0,0,1,0,,,20.0,20,m.txt,155,gap,836,186
,undefined,fgap11.asc,0,0,0,0,,,38.0,38,z.txt,156,gap,754,358
,undefined,fgap11.asc,0,0,2,0,,,125.0,125,m.txt,157,gap,1151,540
,undefined,fgap11.asc,0,0,2,0,,,78.0,78,m.txt,158,gap,499,395
,undefined,fgap11.asc,0,0,4,0,,,62.0,62,m.txt,159,gap,240,302
CORRECT,undefined,fgap11.asc,0,16,3,0,m,5121,73.0,73,m.txt,160,control,635,788
CORRECT,undefined,fgap11.asc,0,58,4,0,m,18981,55.0,55,m.txt,161,control,35,351
TIMEOUT,undefined,fgap11.asc,0,56,3,0,TIMEOUT,20000,43.0,43,z.txt,162,control,758,626
TIMEOUT,undefined,fgap11.asc,0,59,1,0,TIMEOUT,20000,120.0,120,z.txt,163,control,368,366
CORRECT,undefined,fgap11.asc,0,55,1,0,z,17603,156.0,156,z.txt,164,control,1086,610
,undefined,fgap11.asc,0,0,2,0,,,151.0,151,z.txt,165,gap,982,787
,undefined,fgap11.asc,0,0,1,0,,,90.0,90,z.txt,166,gap,695,164
,undefined,fgap11.asc,0,0,6,0,,,166.0,166,m.txt,167,gap,505,453
,undefined,fgap11.asc,0,0,1,0,,,5.0,5,m.txt,168,gap,396,111
,undefined,fgap11.asc,0,0,0,0,,,130.0,130,m.txt,169,gap,20,274
TIMEOUT,undefined,fgap11.asc,0,65,0,0,TIMEOUT,20000,25.0,25,z.txt,170,control,637,556
TIMEOUT,undefined,fgap11.asc,0,51,5,0,TIMEOUT,20000,122.0,122,z.txt,171,control,252,781
TIMEOUT,undefined,fgap11.asc,0,64,4,0,TIMEOUT,20000,68.0,68,z.txt,172,control,1191,444
TIMEOUT,undefined,fgap11.asc,0,64,1,0,TIMEOUT,20000,177.0,177,z.txt,173,control,350,54
TIMEOUT,undefined,fgap11.asc,0,56,0,0,TIMEOUT,20000,123.0,123,m.txt,174,control,124,576
,undefined,fgap11.asc,0,0,1,0,,,99.0,99,m.txt,175,gap,349,443
,undefined,fgap11.asc,0,0,0,0,,,114.0,114,m.txt,176,gap,786,106
,undefined,fgap11.asc,0,0,2,0,,,145.0,145,m.txt,177,gap,172,58
,undefined,fgap11.asc,0,0,3,0,,,61.0,61,m.txt,178,gap,545,747
,undefined,fgap11.asc,0,0,3,0,,,162.0,162,m.txt,179,gap,254,744
TIMEOUT,undefined,fgap11.asc,0,63,0,0,TIMEOUT,20000,181.0,181,z.txt,180,control,1143,206
TIMEOUT,undefined,fgap11.asc,0,61,0,0,TIMEOUT,20000,134.0,134,z.txt,181,control,774,571
TIMEOUT,undefined,fgap11.asc,0,55,1,0,TIMEOUT,20000,142.0,142,m.txt,182,control,455,793
CORRECT,undefined,fgap11.asc,0,27,3,0,z,9405,143.0,143,z.txt,183,control,662,418
TIMEOUT,undefined,fgap11.asc,0,60,0,0,TIMEOUT,20000,170.0,170,z.txt,184,control,552,139
,undefined,fgap11.asc,0,0,0,0,,,97.0,97,z.txt,185,gap,458,218
,undefined,fgap11.asc,0,0,0,0,,,14.0,14,m.txt,186,gap,980,81
,undefined,fgap11.asc,0,0,1,0,,,69.0,69,z.txt,187,gap,645,476
,undefined,fgap11.asc,0,0,0,0,,,26.0,26,m.txt,188,gap,599,40
,undefined,fgap11.asc,0,0,0,0,,,108.0,108,m.txt,189,gap,846,143
TIMEOUT,undefined,fgap11.asc,0,63,1,0,TIMEOUT,20000,32.0,32,m.txt,190,control,220,283
TIMEOUT,undefined,fgap11.asc,0,65,0,0,TIMEOUT,20000,146.0,146,m.txt,191,control,916,26
TIMEOUT,undefined,fgap11.asc,0,64,0,0,TIMEOUT,20000,0.0,0,m.txt,192,control,957,673
CORRECT,undefined,fgap11.asc,0,17,3,0,m,7533,70.0,70,m.txt,193,control,723,431
CORRECT,undefined,fgap11.asc,0,8,1,0,m,4510,176.0,176,m.txt,194,control,1003,675
,undefined,fgap11.asc,0,0,0,0,,,135.0,135,z.txt,195,gap,72,93
,undefined,fgap11.asc,0,0,0,0,,,107.0,107,z.txt,196,gap,867,69
,undefined,fgap11.asc,0,0,2,0,,,167.0,167,m.txt,197,gap,557,799
,undefined,fgap11.asc,0,0,0,0,,,106.0,106,m.txt,198,gap,688,481
,undefined,fgap11.asc,0,0,0,0,,,100.0,100,m.txt,199,gap,467,794
TIMEOUT,undefined,fgap05.asc,0,55,5,0,TIMEOUT,20000,101.0,101,m.txt,0,control,414,499
TIMEOUT,undefined,fgap05.asc,0,59,4,0,TIMEOUT,20000,58.0,58,z.txt,1,control,1235,140
TIMEOUT,undefined,fgap05.asc,0,62,6,0,TIMEOUT,20000,98.0,98,z.txt,2,control,1217,764
TIMEOUT,undefined,fgap05.asc,0,57,5,0,TIMEOUT,20000,150.0,150,m.txt,3,control,670,458
TIMEOUT,undefined,fgap05.asc,0,60,5,0,TIMEOUT,20000,90.0,90,z.txt,4,control,695,164
,undefined,fgap05.asc,0,0,4,0,,,20.0,20,m.txt,5,gap,836,186
,undefined,fgap05.asc,0,0,4,0,,,18.0,18,m.txt,6,gap,536,202
,undefined,fgap05.asc,0,0,6,0,,,172.0,172,m.txt,7,gap,1039,742
,undefined,fgap05.asc,0,0,6,0,,,130.0,130,m.txt,8,gap,20,274
,undefined,fgap05.asc,0,0,7,0,,,43.0,43,z.txt,9,gap,758,626
TIMEOUT,undefined,fgap05.asc,0,63,7,0,TIMEOUT,20000,83.0,83,z.txt,10,control,843,100
TIMEOUT,undefined,fgap05.asc,0,67,6,0,TIMEOUT,20000,142.0,142,m.txt,11,control,455,793
CORRECT,undefined,fgap05.asc,0,46,4,0,m,15873,190.0,190,m.txt,12,control,815,37
CORRECT,undefined,fgap05.asc,0,22,5,0,m,6748,141.0,141,m.txt,13,control,289,116
CORRECT,undefined,fgap05.asc,0,11,2,0,z,5144,56.0,56,z.txt,14,control,833,467
,undefined,fgap05.asc,0,0,5,0,,,156.0,156,z.txt,15,gap,1086,610
,undefined,fgap05.asc,0,0,5,0,,,132.0,132,m.txt,16,gap,102,531
,undefined,fgap05.asc,0,0,7,0,,,171.0,171,z.txt,17,gap,463,485
,undefined,fgap05.asc,0,0,8,0,,,103.0,103,z.txt,18,gap,622,480
,undefined,fgap05.asc,0,0,1,0,,,12.0,12,m.txt,19,gap,588,70
CORRECT,undefined,fgap05.asc,0,13,2,0,m,4510,165.0,165,m.txt,20,control,1062,297
TIMEOUT,undefined,fgap05.asc,0,62,8,0,TIMEOUT,20000,71.0,71,z.txt,21,control,795,343
TIMEOUT,undefined,fgap05.asc,0,63,3,0,TIMEOUT,20000,1.0,1,z.txt,22,control,941,527
TIMEOUT,undefined,fgap05.asc,0,59,8,0,TIMEOUT,20000,88.0,88,z.txt,23,control,226,441
TIMEOUT,undefined,fgap05.asc,0,61,8,0,TIMEOUT,20000,23.0,23,m.txt,24,control,148,488
,undefined,fgap05.asc,0,0,3,0,,,177.0,177,z.txt,25,gap,350,54
,undefined,fgap05.asc,0,0,9,0,,,128.0,128,z.txt,26,gap,1032,334
,undefined,fgap05.asc,0,0,5,0,,,124.0,124,m.txt,27,gap,714,56
,undefined,fgap05.asc,0,0,7,0,,,24.0,24,z.txt,28,gap,569,440
,undefined,fgap05.asc,0,0,5,0,,,64.0,64,z.txt,29,gap,444,775
CORRECT,undefined,fgap05.asc,0,43,4,0,m,13879,47.0,47,m.txt,30,control,244,591
TIMEOUT,undefined,fgap05.asc,0,65,6,0,TIMEOUT,20000,110.0,110,z.txt,31,control,161,55
TIMEOUT,undefined,fgap05.asc,0,63,7,0,TIMEOUT,20000,51.0,51,m.txt,32,control,1102,315
CORRECT,undefined,fgap05.asc,0,31,3,0,z,12317,96.0,96,z.txt,33,control,316,74
INCORRECT,undefined,fgap05.asc,0,34,13,0,m,18288,11.0,11,z.txt,34,control,542,665
,undefined,fgap05.asc,0,0,10,0,,,32.0,32,m.txt,35,gap,220,283
,undefined,fgap05.asc,0,0,0,0,,,106.0,106,m.txt,36,gap,688,481
,undefined,fgap05.asc,0,0,1,0,,,29.0,29,m.txt,37,gap,466,109
,undefined,fgap05.asc,0,0,4,0,,,174.0,174,z.txt,38,gap,808,418
,undefined,fgap05.asc,0,0,7,0,,,185.0,185,z.txt,39,gap,392,651
CORRECT,undefined,fgap05.asc,0,9,5,0,z,4876,158.0,158,z.txt,40,control,1223,357
INCORRECT,undefined,fgap05.asc,0,7,0,0,z,6279,87.0,87,m.txt,41,control,387,336
TIMEOUT,undefined,fgap05.asc,0,51,5,0,TIMEOUT,20000,149.0,149,m.txt,42,control,200,415
CORRECT,undefined,fgap05.asc,0,10,2,0,m,3266,75.0,75,m.txt,43,control,988,109
CORRECT,undefined,fgap05.asc,0,16,2,0,m,6055,114.0,114,m.txt,44,control,786,106
,undefined,fgap05.asc,0,0,1,0,,,157.0,157,z.txt,45,gap,60,170
,undefined,fgap05.asc,0,0,5,0,,,93.0,93,z.txt,46,gap,560,106
,undefined,fgap05.asc,0,0,7,0,,,8.0,8,z.txt,47,gap,59,74
,undefined,fgap05.asc,0,0,6,0,,,139.0,139,m.txt,48,gap,212,821
,undefined,fgap05.asc,0,0,3,0,,,125.0,125,m.txt,49,gap,1151,540
CORRECT,undefined,fgap05.asc,0,8,1,0,z,7816,113.0,113,z.txt,50,control,1204,363
CORRECT,undefined,fgap05.asc,0,11,3,0,z,9737,49.0,49,z.txt,51,control,990,497
TIMEOUT,undefined,fgap05.asc,0,48,6,0,TIMEOUT,20000,94.0,94,m.txt,52,control,792,153
CORRECT,undefined,fgap05.asc,0,50,5,0,z,19299,105.0,105,z.txt,53,control,418,347
CORRECT,undefined,fgap05.asc,0,3,1,0,z,1618,44.0,44,z.txt,54,control,211,300
,undefined,fgap05.asc,0,0,3,0,,,122.0,122,z.txt,55,gap,252,781
,undefined,fgap05.asc,0,0,3,0,,,116.0,116,z.txt,56,gap,1191,694
,undefined,fgap05.asc,0,0,5,0,,,6.0,6,z.txt,57,gap,431,168
,undefined,fgap05.asc,0,0,6,0,,,187.0,187,z.txt,58,gap,670,385
,undefined,fgap05.asc,0,0,7,0,,,134.0,134,z.txt,59,gap,774,571
TIMEOUT,undefined,fgap05.asc,0,58,10,0,TIMEOUT,20000,14.0,14,m.txt,60,control,980,81
CORRECT,undefined,fgap05.asc,0,27,2,0,z,10800,135.0,135,z.txt,61,control,72,93
TIMEOUT,undefined,fgap05.asc,0,56,6,0,TIMEOUT,20000,81.0,81,z.txt,62,control,323,441
TIMEOUT,undefined,fgap05.asc,0,55,9,0,TIMEOUT,20000,194.0,194,z.txt,63,control,580,702
CORRECT,undefined,fgap05.asc,0,27,3,0,z,13594,192.0,192,z.txt,64,control,43,693
,undefined,fgap05.asc,0,0,7,0,,,183.0,183,m.txt,65,gap,277,464
,undefined,fgap05.asc,0,0,6,0,,,133.0,133,z.txt,66,gap,31,671
,undefined,fgap05.asc,0,0,9,0,,,66.0,66,m.txt,67,gap,1204,266
,undefined,fgap05.asc,0,0,10,0,,,36.0,36,m.txt,68,gap,1043,387
,undefined,fgap05.asc,0,0,6,0,,,89.0,89,z.txt,69,gap,346,587
TIMEOUT,undefined,fgap05.asc,0,52,7,0,TIMEOUT,20000,65.0,65,m.txt,70,control,277,612
TIMEOUT,undefined,fgap05.asc,0,58,5,0,TIMEOUT,20000,127.0,127,m.txt,71,control,599,82
TIMEOUT,undefined,fgap05.asc,0,58,6,0,TIMEOUT,20000,3.0,3,z.txt,72,control,1247,644
TIMEOUT,undefined,fgap05.asc,0,60,8,0,TIMEOUT,20000,104.0,104,m.txt,73,control,943,79
CORRECT,undefined,fgap05.asc,0,3,4,0,m,2489,17.0,17,m.txt,74,control,997,424
,undefined,fgap05.asc,0,0,8,0,,,40.0,40,z.txt,75,gap,1205,358
,undefined,fgap05.asc,0,0,3,0,,,5.0,5,m.txt,76,gap,396,111
,undefined,fgap05.asc,0,0,5,0,,,73.0,73,m.txt,77,gap,635,788
,undefined,fgap05.asc,0,0,5,0,,,82.0,82,m.txt,78,gap,1251,511
,undefined,fgap05.asc,0,0,7,0,,,77.0,77,z.txt,79,gap,1220,595
TIMEOUT,undefined,fgap05.asc,0,55,7,0,TIMEOUT,20000,137.0,137,m.txt,80,control,714,131
CORRECT,undefined,fgap05.asc,0,41,8,0,m,15196,163.0,163,m.txt,81,control,365,264
TIMEOUT,undefined,fgap05.asc,0,56,6,0,TIMEOUT,20000,46.0,46,m.txt,82,control,1223,420
TIMEOUT,undefined,fgap05.asc,0,52,8,0,TIMEOUT,20000,13.0,13,m.txt,83,control,603,711
TIMEOUT,undefined,fgap05.asc,0,58,10,0,TIMEOUT,20000,111.0,111,z.txt,84,control,501,242
,undefined,fgap05.asc,0,0,4,0,,,54.0,54,z.txt,85,gap,284,188
,undefined,fgap05.asc,0,0,8,0,,,45.0,45,m.txt,86,gap,221,390
,undefined,fgap05.asc,0,0,3,0,,,55.0,55,m.txt,87,gap,35,351
,undefined,fgap05.asc,0,0,5,0,,,198.0,198,z.txt,88,gap,1159,91
,undefined,fgap05.asc,0,0,7,0,,,57.0,57,z.txt,89,gap,741,242
TIMEOUT,undefined,fgap05.asc,0,60,9,0,TIMEOUT,20000,112.0,112,z.txt,90,control,348,830
TIMEOUT,undefined,fgap05.asc,0,60,10,0,TIMEOUT,20000,159.0,159,m.txt,91,control,191,753
TIMEOUT,undefined,fgap05.asc,0,59,8,0,TIMEOUT,20000,136.0,136,m.txt,92,control,37,407
TIMEOUT,undefined,fgap05.asc,0,54,9,0,TIMEOUT,20000,184.0,184,z.txt,93,control,925,220
TIMEOUT,undefined,fgap05.asc,0,51,5,0,TIMEOUT,20000,27.0,27,z.txt,94,control,641,31
,undefined,fgap05.asc,0,0,1,0,,,22.0,22,m.txt,95,gap,802,432
,undefined,fgap05.asc,0,0,5,0,,,31.0,31,m.txt,96,gap,1249,470
,undefined,fgap05.asc,0,0,1,0,,,102.0,102,z.txt,97,gap,229,617
,undefined,fgap05.asc,0,0,8,0,,,196.0,196,m.txt,98,gap,533,824
,undefined,fgap05.asc,0,0,7,0,,,117.0,117,z.txt,99,gap,735,429
TIMEOUT,undefined,fgap05.asc,0,57,10,0,TIMEOUT,20000,148.0,148,z.txt,100,control,412,666
TIMEOUT,undefined,fgap05.asc,0,57,7,0,TIMEOUT,20000,167.0,167,m.txt,101,control,557,799
CORRECT,undefined,fgap05.asc,0,20,3,0,z,9553,151.0,151,z.txt,102,control,982,787
TIMEOUT,undefined,fgap05.asc,0,49,8,0,TIMEOUT,20000,91.0,91,m.txt,103,control,710,431
TIMEOUT,undefined,fgap05.asc,0,59,5,0,TIMEOUT,20000,182.0,182,m.txt,104,control,918,440
,undefined,fgap05.asc,0,0,9,0,,,153.0,153,m.txt,105,gap,649,123
,undefined,fgap05.asc,0,0,8,0,,,123.0,123,m.txt,106,gap,124,576
,undefined,fgap05.asc,0,0,7,0,,,97.0,97,z.txt,107,gap,458,218
,undefined,fgap05.asc,0,0,0,0,,,86.0,86,z.txt,108,gap,115,573
,undefined,fgap05.asc,0,0,7,0,,,154.0,154,z.txt,109,gap,136,459
TIMEOUT,undefined,fgap05.asc,0,53,8,0,TIMEOUT,20000,79.0,79,m.txt,110,control,793,624
CORRECT,undefined,fgap05.asc,0,22,2,0,m,8350,76.0,76,m.txt,111,control,121,80
TIMEOUT,undefined,fgap05.asc,0,60,5,0,TIMEOUT,20000,180.0,180,z.txt,112,control,1036,239
TIMEOUT,undefined,fgap05.asc,0,57,6,0,TIMEOUT,20000,181.0,181,z.txt,113,control,1143,206
TIMEOUT,undefined,fgap05.asc,0,60,5,0,TIMEOUT,20000,179.0,179,z.txt,114,control,843,390
,undefined,fgap05.asc,0,0,1,0,,,120.0,120,z.txt,115,gap,368,366
,undefined,fgap05.asc,0,0,3,0,,,146.0,146,m.txt,116,gap,916,26
,undefined,fgap05.asc,0,0,6,0,,,164.0,164,z.txt,117,gap,35,42
,undefined,fgap05.asc,0,0,2,0,,,33.0,33,m.txt,118,gap,49,414
,undefined,fgap05.asc,0,0,5,0,,,169.0,169,z.txt,119,gap,140,405
TIMEOUT,undefined,fgap05.asc,0,52,9,0,TIMEOUT,20000,28.0,28,z.txt,120,control,845,591
CORRECT,undefined,fgap05.asc,0,16,2,0,m,5272,34.0,34,m.txt,121,control,1240,437
TIMEOUT,undefined,fgap05.asc,0,57,8,0,TIMEOUT,20000,74.0,74,z.txt,122,control,230,639
TIMEOUT,undefined,fgap05.asc,0,59,8,0,TIMEOUT,20000,16.0,16,z.txt,123,control,345,487
TIMEOUT,undefined,fgap05.asc,0,57,11,0,TIMEOUT,20000,107.0,107,z.txt,124,control,867,69
,undefined,fgap05.asc,0,0,9,0,,,161.0,161,z.txt,125,gap,427,254
,undefined,fgap05.asc,0,0,8,0,,,67.0,67,z.txt,126,gap,164,104
,undefined,fgap05.asc,0,0,6,0,,,100.0,100,m.txt,127,gap,467,794
,undefined,fgap05.asc,0,0,5,0,,,119.0,119,m.txt,128,gap,423,816
,undefined,fgap05.asc,0,0,8,0,,,48.0,48,m.txt,129,gap,453,709
TIMEOUT,undefined,fgap05.asc,0,58,10,0,TIMEOUT,20000,160.0,160,z.txt,130,control,124,754
TIMEOUT,undefined,fgap05.asc,0,57,7,0,TIMEOUT,20000,2.0,2,m.txt,131,control,454,514
INCORRECT,undefined,fgap05.asc,0,56,8,0,m,18337,21.0,21,z.txt,132,control,83,409
CORRECT,undefined,fgap05.asc,0,30,12,0,m,11517,92.0,92,m.txt,133,control,64,707
TIMEOUT,undefined,fgap05.asc,0,61,8,0,TIMEOUT,20000,50.0,50,z.txt,134,control,225,108
,undefined,fgap05.asc,0,0,0,0,,,63.0,63,m.txt,135,gap,183,142
,undefined,fgap05.asc,0,0,5,0,,,9.0,9,m.txt,136,gap,1141,151
,undefined,fgap05.asc,0,0,4,0,,,4.0,4,m.txt,137,gap,520,310
,undefined,fgap05.asc,0,0,7,0,,,19.0,19,z.txt,138,gap,891,379
,undefined,fgap05.asc,0,0,9,0,,,189.0,189,m.txt,139,gap,1187,635
TIMEOUT,undefined,fgap05.asc,0,54,7,0,TIMEOUT,20000,38.0,38,z.txt,140,control,754,358
CORRECT,undefined,fgap05.asc,0,8,1,0,m,3774,42.0,42,m.txt,141,control,128,413
TIMEOUT,undefined,fgap05.asc,0,60,7,0,TIMEOUT,20000,170.0,170,z.txt,142,control,552,139
TIMEOUT,undefined,fgap05.asc,0,61,6,0,TIMEOUT,20000,145.0,145,m.txt,143,control,172,58
CORRECT,undefined,fgap05.asc,0,7,2,0,m,3658,166.0,166,m.txt,144,control,505,453
,undefined,fgap05.asc,0,0,7,0,,,155.0,155,m.txt,145,gap,1135,466
,undefined,fgap05.asc,0,0,12,0,,,178.0,178,m.txt,146,gap,218,557
,undefined,fgap05.asc,0,0,7,0,,,26.0,26,m.txt,147,gap,599,40
,undefined,fgap05.asc,0,0,3,0,,,72.0,72,z.txt,148,gap,986,465
,undefined,fgap05.asc,0,0,9,0,,,188.0,188,m.txt,149,gap,542,564
TIMEOUT,undefined,fgap05.asc,0,59,14,0,TIMEOUT,20000,131.0,131,z.txt,150,control,1143,163
CORRECT,undefined,fgap05.asc,0,0,1,0,m,686,53.0,53,m.txt,151,control,704,528
CORRECT,undefined,fgap05.asc,0,23,2,0,z,9386,60.0,60,z.txt,152,control,444,415
TIMEOUT,undefined,fgap05.asc,0,61,4,0,TIMEOUT,20000,162.0,162,m.txt,153,control,254,744
TIMEOUT,undefined,fgap05.asc,0,59,5,0,TIMEOUT,20000,39.0,39,m.txt,154,control,125,335
,undefined,fgap05.asc,0,0,5,0,,,143.0,143,z.txt,155,gap,662,418
,undefined,fgap05.asc,0,0,1,0,,,173.0,173,z.txt,156,gap,114,424
,undefined,fgap05.asc,0,0,6,0,,,152.0,152,m.txt,157,gap,826,718
,undefined,fgap05.asc,0,0,2,0,,,68.0,68,z.txt,158,gap,1191,444
,undefined,fgap05.asc,0,0,7,0,,,69.0,69,z.txt,159,gap,645,476
TIMEOUT,undefined,fgap05.asc,0,55,5,0,TIMEOUT,20000,129.0,129,z.txt,160,control,1222,780
TIMEOUT,undefined,fgap05.asc,0,57,4,0,TIMEOUT,20000,15.0,15,z.txt,161,control,27,41
CORRECT,undefined,fgap05.asc,0,6,1,0,m,2359,176.0,176,m.txt,162,control,1003,675
INCORRECT,undefined,fgap05.asc,0,31,4,0,z,10288,62.0,62,m.txt,163,control,240,302
CORRECT,undefined,fgap05.asc,0,1,0,0,z,926,25.0,25,z.txt,164,control,637,556
,undefined,fgap05.asc,0,0,7,0,,,78.0,78,m.txt,165,gap,499,395
,undefined,fgap05.asc,0,0,8,0,,,10.0,10,m.txt,166,gap,634,337
,undefined,fgap05.asc,0,0,0,0,,,108.0,108,m.txt,167,gap,846,143
,undefined,fgap05.asc,0,0,5,0,,,52.0,52,m.txt,168,gap,1117,166
,undefined,fgap05.asc,0,0,3,0,,,195.0,195,z.txt,169,gap,309,49
TIMEOUT,undefined,fgap05.asc,0,57,7,0,TIMEOUT,20000,41.0,41,z.txt,170,control,999,230
TIMEOUT,undefined,fgap05.asc,0,55,6,0,TIMEOUT,20000,99.0,99,m.txt,171,control,349,443
CORRECT,undefined,fgap05.asc,0,17,1,0,m,6185,61.0,61,m.txt,172,control,545,747
CORRECT,undefined,fgap05.asc,0,11,0,0,m,5895,140.0,140,m.txt,173,control,630,101
CORRECT,undefined,fgap05.asc,0,6,1,0,z,2408,147.0,147,z.txt,174,control,1205,601
,undefined,fgap05.asc,0,0,1,0,,,59.0,59,z.txt,175,gap,448,433
,undefined,fgap05.asc,0,0,1,0,,,144.0,144,z.txt,176,gap,758,774
,undefined,fgap05.asc,0,0,4,0,,,126.0,126,z.txt,177,gap,281,758
,undefined,fgap05.asc,0,0,1,0,,,37.0,37,m.txt,178,gap,334,90
,undefined,fgap05.asc,0,0,5,0,,,191.0,191,z.txt,179,gap,1244,134
CORRECT,undefined,fgap05.asc,0,21,2,0,m,6868,70.0,70,m.txt,180,control,723,431
TIMEOUT,undefined,fgap05.asc,0,56,6,0,TIMEOUT,20000,30.0,30,z.txt,181,control,92,583
TIMEOUT,undefined,fgap05.asc,0,56,4,0,TIMEOUT,20000,80.0,80,z.txt,182,control,73,80
CORRECT,undefined,fgap05.asc,0,46,6,0,m,19506,35.0,35,m.txt,183,control,23,354
TIMEOUT,undefined,fgap05.asc,0,62,9,0,TIMEOUT,20000,109.0,109,m.txt,184,control,1246,279
,undefined,fgap05.asc,0,0,8,0,,,95.0,95,z.txt,185,gap,719,168
,undefined,fgap05.asc,0,0,9,0,,,84.0,84,z.txt,186,gap,638,832
,undefined,fgap05.asc,0,0,1,0,,,121.0,121,m.txt,187,gap,104,411
,undefined,fgap05.asc,0,0,3,0,,,7.0,7,z.txt,188,gap,459,246
,undefined,fgap05.asc,0,0,1,0,,,199.0,199,z.txt,189,gap,679,413
TIMEOUT,undefined,fgap05.asc,0,60,8,0,TIMEOUT,20000,118.0,118,z.txt,190,control,1095,238
TIMEOUT,undefined,fgap05.asc,0,46,7,0,TIMEOUT,20000,115.0,115,z.txt,191,control,91,286
TIMEOUT,undefined,fgap05.asc,0,58,6,0,TIMEOUT,20000,186.0,186,m.txt,192,control,1228,164
CORRECT,undefined,fgap05.asc,0,4,0,0,z,1087,193.0,193,z.txt,193,control,541,487
CORRECT,undefined,fgap05.asc,0,23,2,0,m,8072,0.0,0,m.txt,194,control,957,673
,undefined,fgap05.asc,0,0,4,0,,,175.0,175,z.txt,195,gap,916,572
,undefined,fgap05.asc,0,0,1,0,,,197.0,197,m.txt,196,gap,670,577
,undefined,fgap05.asc,0,0,4,0,,,168.0,168,z.txt,197,gap,535,475
,undefined,fgap05.asc,0,0,6,0,,,138.0,138,z.txt,198,gap,390,533
,undefined,fgap05.asc,0,0,2,0,,,85.0,85,m.txt,199,gap,1015,549
TIMEOUT,undefined,sgap03.asc,0,64,22,0,TIMEOUT,20000,114.0,114,m.txt,0,control,786,106
TIMEOUT,undefined,sgap03.asc,0,74,7,0,TIMEOUT,20000,197.0,197,m.txt,1,control,670,577
CORRECT,undefined,sgap03.asc,0,33,4,0,m,9941,108.0,108,m.txt,2,control,846,143
TIMEOUT,undefined,sgap03.asc,0,69,8,0,TIMEOUT,20000,119.0,119,m.txt,3,control,423,816
TIMEOUT,undefined,sgap03.asc,0,69,10,0,TIMEOUT,20000,50.0,50,z.txt,4,control,225,108
,undefined,sgap03.asc,0,0,4,0,,,29.0,29,m.txt,5,gap,466,109
,undefined,sgap03.asc,0,0,10,0,,,131.0,131,z.txt,6,gap,1143,163
,undefined,sgap03.asc,0,0,9,0,,,14.0,14,m.txt,7,gap,980,81
,undefined,sgap03.asc,0,0,4,0,,,172.0,172,m.txt,8,gap,1039,742
,undefined,sgap03.asc,0,0,8,0,,,60.0,60,z.txt,9,gap,444,415
TIMEOUT,undefined,sgap03.asc,0,53,10,0,TIMEOUT,20000,11.0,11,z.txt,10,control,542,665
CORRECT,undefined,sgap03.asc,0,3,5,0,z,1757,173.0,173,z.txt,11,control,114,424
TIMEOUT,undefined,sgap03.asc,0,70,10,0,TIMEOUT,20000,28.0,28,z.txt,12,control,845,591
CORRECT,undefined,sgap03.asc,0,17,4,0,m,5123,63.0,63,m.txt,13,control,183,142
TIMEOUT,undefined,sgap03.asc,0,62,7,0,TIMEOUT,20000,146.0,146,m.txt,14,control,916,26
,undefined,sgap03.asc,0,0,14,0,,,43.0,43,z.txt,15,gap,758,626
,undefined,sgap03.asc,0,0,12,0,,,174.0,174,z.txt,16,gap,808,418
,undefined,sgap03.asc,0,0,12,0,,,168.0,168,z.txt,17,gap,535,475
,undefined,sgap03.asc,0,0,12,0,,,134.0,134,z.txt,18,gap,774,571
,undefined,sgap03.asc,0,0,11,0,,,40.0,40,z.txt,19,gap,1205,358
TIMEOUT,undefined,sgap03.asc,0,59,13,0,TIMEOUT,20000,46.0,46,m.txt,20,control,1223,420
TIMEOUT,undefined,sgap03.asc,0,56,14,0,TIMEOUT,20000,71.0,71,z.txt,21,control,795,343
TIMEOUT,undefined,sgap03.asc,0,60,11,0,TIMEOUT,20000,118.0,118,z.txt,22,control,1095,238
TIMEOUT,undefined,sgap03.asc,0,63,13,0,TIMEOUT,20000,154.0,154,z.txt,23,control,136,459
TIMEOUT,undefined,sgap03.asc,0,57,15,0,TIMEOUT,20000,35.0,35,m.txt,24,control,23,354
,undefined,sgap03.asc,0,0,14,0,,,195.0,195,z.txt,25,gap,309,49
,undefined,sgap03.asc,0,0,9,0,,,37.0,37,m.txt,26,gap,334,90
,undefined,sgap03.asc,0,0,13,0,,,136.0,136,m.txt,27,gap,37,407
,undefined,sgap03.asc,0,0,17,0,,,193.0,193,z.txt,28,gap,541,487
,undefined,sgap03.asc,0,0,14,0,,,67.0,67,z.txt,29,gap,164,104
TIMEOUT,undefined,sgap03.asc,0,62,13,0,TIMEOUT,20000,122.0,122,z.txt,30,control,252,781
TIMEOUT,undefined,sgap03.asc,0,60,15,0,TIMEOUT,20000,148.0,148,z.txt,31,control,412,666
TIMEOUT,undefined,sgap03.asc,0,70,10,0,TIMEOUT,20000,163.0,163,m.txt,32,control,365,264
CORRECT,undefined,sgap03.asc,0,48,9,0,z,15056,56.0,56,z.txt,33,control,833,467
TIMEOUT,undefined,sgap03.asc,0,70,11,0,TIMEOUT,20000,0.0,0,m.txt,34,control,957,673
,undefined,sgap03.asc,0,0,11,0,,,8.0,8,z.txt,35,gap,59,74
,undefined,sgap03.asc,0,0,15,0,,,34.0,34,m.txt,36,gap,1240,437
,undefined,sgap03.asc,0,0,13,0,,,75.0,75,m.txt,37,gap,988,109
,undefined,sgap03.asc,0,0,17,0,,,95.0,95,z.txt,38,gap,719,168
,undefined,sgap03.asc,0,0,14,0,,,24.0,24,z.txt,39,gap,569,440
TIMEOUT,undefined,sgap03.asc,0,53,26,0,TIMEOUT,20000,3.0,3,z.txt,40,control,1247,644
TIMEOUT,undefined,sgap03.asc,0,73,12,0,TIMEOUT,20000,121.0,121,m.txt,41,control,104,411
TIMEOUT,undefined,sgap03.asc,0,63,11,0,TIMEOUT,20000,33.0,33,m.txt,42,control,49,414
TIMEOUT,undefined,sgap03.asc,0,54,14,0,TIMEOUT,20000,36.0,36,m.txt,43,control,1043,387
TIMEOUT,undefined,sgap03.asc,0,49,15,0,TIMEOUT,20000,92.0,92,m.txt,44,control,64,707
,undefined,sgap03.asc,0,0,17,0,,,31.0,31,m.txt,45,gap,1249,470
,undefined,sgap03.asc,0,0,14,0,,,58.0,58,z.txt,46,gap,1235,140
,undefined,sgap03.asc,0,0,12,0,,,198.0,198,z.txt,47,gap,1159,91
,undefined,sgap03.asc,0,0,10,0,,,32.0,32,m.txt,48,gap,220,283
,undefined,sgap03.asc,0,0,4,0,,,188.0,188,m.txt,49,gap,542,564
TIMEOUT,undefined,sgap03.asc,0,73,11,0,TIMEOUT,20000,189.0,189,m.txt,50,control,1187,635
TIMEOUT,undefined,sgap03.asc,0,59,15,0,TIMEOUT,20000,102.0,102,z.txt,51,control,229,617
TIMEOUT,undefined,sgap03.asc,0,66,11,0,TIMEOUT,20000,111.0,111,z.txt,52,control,501,242
TIMEOUT,undefined,sgap03.asc,0,60,15,0,TIMEOUT,20000,182.0,182,m.txt,53,control,918,440
CORRECT,undefined,sgap03.asc,0,27,10,0,m,11444,23.0,23,m.txt,54,control,148,488
,undefined,sgap03.asc,0,0,16,0,,,110.0,110,z.txt,55,gap,161,55
,undefined,sgap03.asc,0,0,7,0,,,22.0,22,m.txt,56,gap,802,432
,undefined,sgap03.asc,0,0,2,0,,,156.0,156,z.txt,57,gap,1086,610
,undefined,sgap03.asc,0,0,11,0,,,61.0,61,m.txt,58,gap,545,747
,undefined,sgap03.asc,0,0,8,0,,,51.0,51,m.txt,59,gap,1102,315
TIMEOUT,undefined,sgap03.asc,0,64,13,0,TIMEOUT,20000,105.0,105,z.txt,60,control,418,347
TIMEOUT,undefined,sgap03.asc,0,64,15,0,TIMEOUT,20000,103.0,103,z.txt,61,control,622,480
CORRECT,undefined,sgap03.asc,0,37,9,0,m,13148,124.0,124,m.txt,62,control,714,56
CORRECT,undefined,sgap03.asc,0,3,2,0,m,2013,53.0,53,m.txt,63,control,704,528
CORRECT,undefined,sgap03.asc,0,20,3,0,m,4885,20.0,20,m.txt,64,control,836,186
,undefined,sgap03.asc,0,0,12,0,,,181.0,181,z.txt,65,gap,1143,206
,undefined,sgap03.asc,0,0,14,0,,,179.0,179,z.txt,66,gap,843,390
,undefined,sgap03.asc,0,0,13,0,,,126.0,126,z.txt,67,gap,281,758
,undefined,sgap03.asc,0,0,19,0,,,62.0,62,m.txt,68,gap,240,302
,undefined,sgap03.asc,0,0,7,0,,,98.0,98,z.txt,69,gap,1217,764
TIMEOUT,undefined,sgap03.asc,0,58,15,0,TIMEOUT,20000,143.0,143,z.txt,70,control,662,418
CORRECT,undefined,sgap03.asc,0,57,15,0,m,19747,73.0,73,m.txt,71,control,635,788
TIMEOUT,undefined,sgap03.asc,0,72,27,0,TIMEOUT,20000,145.0,145,m.txt,72,control,172,58
TIMEOUT,undefined,sgap03.asc,0,66,13,0,TIMEOUT,20000,159.0,159,m.txt,73,control,191,753
TIMEOUT,undefined,sgap03.asc,0,55,16,0,TIMEOUT,20000,129.0,129,z.txt,74,control,1222,780
,undefined,sgap03.asc,0,0,12,0,,,101.0,101,m.txt,75,gap,414,499
,undefined,sgap03.asc,0,0,8,0,,,151.0,151,z.txt,76,gap,982,787
,undefined,sgap03.asc,0,0,16,0,,,72.0,72,z.txt,77,gap,986,465
,undefined,sgap03.asc,0,0,13,0,,,107.0,107,z.txt,78,gap,867,69
,undefined,sgap03.asc,0,0,15,0,,,135.0,135,z.txt,79,gap,72,93
TIMEOUT,undefined,sgap03.asc,0,66,13,0,TIMEOUT,20000,6.0,6,z.txt,80,control,431,168
CORRECT,undefined,sgap03.asc,0,15,6,0,z,6484,49.0,49,z.txt,81,control,990,497
CORRECT,undefined,sgap03.asc,0,15,3,0,m,5212,17.0,17,m.txt,82,control,997,424
TIMEOUT,undefined,sgap03.asc,0,70,11,0,TIMEOUT,20000,83.0,83,z.txt,83,control,843,100
TIMEOUT,undefined,sgap03.asc,0,63,17,0,TIMEOUT,20000,127.0,127,m.txt,84,control,599,82
,undefined,sgap03.asc,0,0,13,0,,,160.0,160,z.txt,85,gap,124,754
,undefined,sgap03.asc,0,0,17,0,,,194.0,194,z.txt,86,gap,580,702
,undefined,sgap03.asc,0,0,8,0,,,55.0,55,m.txt,87,gap,35,351
,undefined,sgap03.asc,0,0,14,0,,,132.0,132,m.txt,88,gap,102,531
,undefined,sgap03.asc,0,0,6,0,,,18.0,18,m.txt,89,gap,536,202
TIMEOUT,undefined,sgap03.asc,0,63,15,0,TIMEOUT,20000,170.0,170,z.txt,90,control,552,139
TIMEOUT,undefined,sgap03.asc,0,48,16,0,TIMEOUT,20000,115.0,115,z.txt,91,control,91,286
TIMEOUT,undefined,sgap03.asc,0,55,16,0,TIMEOUT,20000,164.0,164,z.txt,92,control,35,42
TIMEOUT,undefined,sgap03.asc,0,64,14,0,TIMEOUT,20000,177.0,177,z.txt,93,control,350,54
TIMEOUT,undefined,sgap03.asc,0,62,12,0,TIMEOUT,20000,183.0,183,m.txt,94,control,277,464
,undefined,sgap03.asc,0,0,14,0,,,93.0,93,z.txt,95,gap,560,106
,undefined,sgap03.asc,0,0,18,0,,,2.0,2,m.txt,96,gap,454,514
,undefined,sgap03.asc,0,0,7,0,,,155.0,155,m.txt,97,gap,1135,466
,undefined,sgap03.asc,0,0,13,0,,,70.0,70,m.txt,98,gap,723,431
,undefined,sgap03.asc,0,0,20,0,,,26.0,26,m.txt,99,gap,599,40
TIMEOUT,undefined,sgap03.asc,0,67,7,0,TIMEOUT,20000,142.0,142,m.txt,100,control,455,793
TIMEOUT,undefined,sgap03.asc,0,62,12,0,TIMEOUT,20000,54.0,54,z.txt,101,control,284,188
TIMEOUT,undefined,sgap03.asc,0,57,12,0,TIMEOUT,20000,15.0,15,z.txt,102,control,27,41
TIMEOUT,undefined,sgap03.asc,0,68,12,0,TIMEOUT,20000,169.0,169,z.txt,103,control,140,405
TIMEOUT,undefined,sgap03.asc,0,55,15,0,TIMEOUT,20000,199.0,199,z.txt,104,control,679,413
,undefined,sgap03.asc,0,0,14,0,,,175.0,175,z.txt,105,gap,916,572
,undefined,sgap03.asc,0,0,11,0,,,190.0,190,m.txt,106,gap,815,37
,undefined,sgap03.asc,0,0,10,0,,,42.0,42,m.txt,107,gap,128,413
,undefined,sgap03.asc,0,0,4,0,,,76.0,76,m.txt,108,gap,121,80
,undefined,sgap03.asc,0,0,16,0,,,89.0,89,z.txt,109,gap,346,587
TIMEOUT,undefined,sgap03.asc,0,62,13,0,TIMEOUT,20000,130.0,130,m.txt,110,control,20,274
TIMEOUT,undefined,sgap03.asc,0,69,13,0,TIMEOUT,20000,171.0,171,z.txt,111,control,463,485
CORRECT,undefined,sgap03.asc,0,12,5,0,m,4567,140.0,140,m.txt,112,control,630,101
CORRECT,undefined,sgap03.asc,0,16,6,0,m,5643,137.0,137,m.txt,113,control,714,131
TIMEOUT,undefined,sgap03.asc,0,68,13,0,TIMEOUT,20000,139.0,139,m.txt,114,control,212,821
,undefined,sgap03.asc,0,0,2,0,,,158.0,158,z.txt,115,gap,1223,357
,undefined,sgap03.asc,0,0,19,0,,,161.0,161,z.txt,116,gap,427,254
,undefined,sgap03.asc,0,0,17,0,,,113.0,113,z.txt,117,gap,1204,363
,undefined,sgap03.asc,0,0,8,0,,,165.0,165,m.txt,118,gap,1062,297
,undefined,sgap03.asc,0,0,15,0,,,90.0,90,z.txt,119,gap,695,164
TIMEOUT,undefined,sgap03.asc,0,58,15,0,TIMEOUT,20000,74.0,74,z.txt,120,control,230,639
TIMEOUT,undefined,sgap03.asc,0,53,14,0,TIMEOUT,20000,87.0,87,m.txt,121,control,387,336
TIMEOUT,undefined,sgap03.asc,0,70,12,0,TIMEOUT,20000,84.0,84,z.txt,122,control,638,832
CORRECT,undefined,sgap03.asc,0,9,3,0,m,3618,153.0,153,m.txt,123,control,649,123
CORRECT,undefined,sgap03.asc,0,5,2,0,m,1625,78.0,78,m.txt,124,control,499,395
,undefined,sgap03.asc,0,0,4,0,,,12.0,12,m.txt,125,gap,588,70
,undefined,sgap03.asc,0,0,15,0,,,1.0,1,z.txt,126,gap,941,527
,undefined,sgap03.asc,0,0,17,0,,,123.0,123,m.txt,127,gap,124,576
,undefined,sgap03.asc,0,0,12,0,,,45.0,45,m.txt,128,gap,221,390
,undefined,sgap03.asc,0,0,18,0,,,77.0,77,z.txt,129,gap,1220,595
TIMEOUT,undefined,sgap03.asc,0,66,15,0,TIMEOUT,20000,144.0,144,z.txt,130,control,758,774
CORRECT,undefined,sgap03.asc,0,34,8,0,m,11238,48.0,48,m.txt,131,control,453,709
CORRECT,undefined,sgap03.asc,0,41,9,0,m,13358,9.0,9,m.txt,132,control,1141,151
CORRECT,undefined,sgap03.asc,0,23,6,0,m,8326,186.0,186,m.txt,133,control,1228,164
CORRECT,undefined,sgap03.asc,0,14,4,0,z,5502,59.0,59,z.txt,134,control,448,433
,undefined,sgap03.asc,0,0,17,0,,,112.0,112,z.txt,135,gap,348,830
,undefined,sgap03.asc,0,0,4,0,,,97.0,97,z.txt,136,gap,458,218
,undefined,sgap03.asc,0,0,16,0,,,13.0,13,m.txt,137,gap,603,711
,undefined,sgap03.asc,0,0,10,0,,,47.0,47,m.txt,138,gap,244,591
,undefined,sgap03.asc,0,0,5,0,,,44.0,44,z.txt,139,gap,211,300
TIMEOUT,undefined,sgap03.asc,0,61,12,0,TIMEOUT,20000,38.0,38,z.txt,140,control,754,358
TIMEOUT,undefined,sgap03.asc,0,78,10,0,TIMEOUT,20000,152.0,152,m.txt,141,control,826,718
TIMEOUT,undefined,sgap03.asc,0,67,15,0,TIMEOUT,20000,79.0,79,m.txt,142,control,793,624
CORRECT,undefined,sgap03.asc,0,45,12,0,z,16320,128.0,128,z.txt,143,control,1032,334
TIMEOUT,undefined,sgap03.asc,0,51,17,0,TIMEOUT,20000,133.0,133,z.txt,144,control,31,671
,undefined,sgap03.asc,0,0,16,0,,,65.0,65,m.txt,145,gap,277,612
,undefined,sgap03.asc,0,0,17,0,,,39.0,39,m.txt,146,gap,125,335
,undefined,sgap03.asc,0,0,15,0,,,157.0,157,z.txt,147,gap,60,170
,undefined,sgap03.asc,0,0,6,0,,,68.0,68,z.txt,148,gap,1191,444
,undefined,sgap03.asc,0,0,8,0,,,176.0,176,m.txt,149,gap,1003,675
TIMEOUT,undefined,sgap03.asc,0,57,14,0,TIMEOUT,20000,94.0,94,m.txt,150,control,792,153
TIMEOUT,undefined,sgap03.asc,0,54,18,0,TIMEOUT,20000,25.0,25,z.txt,151,control,637,556
CORRECT,undefined,sgap03.asc,0,13,3,0,m,5108,125.0,125,m.txt,152,control,1151,540
TIMEOUT,undefined,sgap03.asc,0,65,12,0,TIMEOUT,20000,184.0,184,z.txt,153,control,925,220
TIMEOUT,undefined,sgap03.asc,0,63,13,0,TIMEOUT,20000,109.0,109,m.txt,154,control,1246,279
,undefined,sgap03.asc,0,0,16,0,,,10.0,10,m.txt,155,gap,634,337
,undefined,sgap03.asc,0,0,13,0,,,69.0,69,z.txt,156,gap,645,476
,undefined,sgap03.asc,0,0,15,0,,,64.0,64,z.txt,157,gap,444,775
,undefined,sgap03.asc,0,0,15,0,,,106.0,106,m.txt,158,gap,688,481
,undefined,sgap03.asc,0,0,13,0,,,178.0,178,m.txt,159,gap,218,557
TIMEOUT,undefined,sgap03.asc,0,67,13,0,TIMEOUT,20000,16.0,16,z.txt,160,control,345,487
CORRECT,undefined,sgap03.asc,0,32,9,0,m,11182,149.0,149,m.txt,161,control,200,415
CORRECT,undefined,sgap03.asc,0,5,1,0,z,1825,21.0,21,z.txt,162,control,83,409
CORRECT,undefined,sgap03.asc,0,7,2,0,m,3098,166.0,166,m.txt,163,control,505,453
TIMEOUT,undefined,sgap03.asc,0,62,15,0,TIMEOUT,20000,81.0,81,z.txt,164,control,323,441
,undefined,sgap03.asc,0,0,13,0,,,147.0,147,z.txt,165,gap,1205,601
,undefined,sgap03.asc,0,0,2,0,,,180.0,180,z.txt,166,gap,1036,239
,undefined,sgap03.asc,0,0,3,0,,,141.0,141,m.txt,167,gap,289,116
,undefined,sgap03.asc,0,0,5,0,,,85.0,85,m.txt,168,gap,1015,549
,undefined,sgap03.asc,0,0,10,0,,,196.0,196,m.txt,169,gap,533,824
TIMEOUT,undefined,sgap03.asc,0,70,12,0,TIMEOUT,20000,57.0,57,z.txt,170,control,741,242
CORRECT,undefined,sgap03.asc,0,38,8,0,m,12135,104.0,104,m.txt,171,control,943,79
CORRECT,undefined,sgap03.asc,0,2,2,0,m,2238,91.0,91,m.txt,172,control,710,431
TIMEOUT,undefined,sgap03.asc,0,67,14,0,TIMEOUT,20000,99.0,99,m.txt,173,control,349,443
TIMEOUT,undefined,sgap03.asc,0,57,11,0,TIMEOUT,20000,82.0,82,m.txt,174,control,1251,511
,undefined,sgap03.asc,0,0,13,0,,,30.0,30,z.txt,175,gap,92,583
,undefined,sgap03.asc,0,0,12,0,,,4.0,4,m.txt,176,gap,520,310
,undefined,sgap03.asc,0,0,14,0,,,27.0,27,z.txt,177,gap,641,31
,undefined,sgap03.asc,0,0,13,0,,,167.0,167,m.txt,178,gap,557,799
,undefined,sgap03.asc,0,0,14,0,,,185.0,185,z.txt,179,gap,392,651
TIMEOUT,undefined,sgap03.asc,0,61,15,0,TIMEOUT,20000,116.0,116,z.txt,180,control,1191,694
CORRECT,undefined,sgap03.asc,0,11,4,0,z,4716,191.0,191,z.txt,181,control,1244,134
TIMEOUT,undefined,sgap03.asc,0,67,12,0,TIMEOUT,20000,117.0,117,z.txt,182,control,735,429
TIMEOUT,undefined,sgap03.asc,0,50,17,0,TIMEOUT,20000,5.0,5,m.txt,183,control,396,111
TIMEOUT,undefined,sgap03.asc,0,64,13,0,TIMEOUT,20000,41.0,41,z.txt,184,control,999,230
,undefined,sgap03.asc,0,0,14,0,,,96.0,96,z.txt,185,gap,316,74
,undefined,sgap03.asc,0,0,11,0,,,7.0,7,z.txt,186,gap,459,246
,undefined,sgap03.asc,0,0,13,0,,,66.0,66,m.txt,187,gap,1204,266
,undefined,sgap03.asc,0,0,13,0,,,80.0,80,z.txt,188,gap,73,80
,undefined,sgap03.asc,0,0,16,0,,,138.0,138,z.txt,189,gap,390,533
TIMEOUT,undefined,sgap03.asc,0,64,13,0,TIMEOUT,20000,192.0,192,z.txt,190,control,43,693
CORRECT,undefined,sgap03.asc,0,22,5,0,z,7227,86.0,86,z.txt,191,control,115,573
TIMEOUT,undefined,sgap03.asc,0,64,13,0,TIMEOUT,20000,52.0,52,m.txt,192,control,1117,166
TIMEOUT,undefined,sgap03.asc,0,52,16,0,TIMEOUT,20000,100.0,100,m.txt,193,control,467,794
TIMEOUT,undefined,sgap03.asc,0,41,14,0,TIMEOUT,20000,19.0,19,z.txt,194,control,891,379
,undefined,sgap03.asc,0,0,16,0,,,88.0,88,z.txt,195,gap,226,441
,undefined,sgap03.asc,0,0,17,0,,,187.0,187,z.txt,196,gap,670,385
,undefined,sgap03.asc,0,0,15,0,,,162.0,162,m.txt,197,gap,254,744
,undefined,sgap03.asc,0,0,17,0,,,120.0,120,z.txt,198,gap,368,366
,undefined,sgap03.asc,0,0,15,0,,,150.0,150,m.txt,199,gap,670,458
TIMEOUT,undefined,fgap01.asc,0,58,5,0,TIMEOUT,20000,139.0,139,m.txt,0,control,212,821
TIMEOUT,undefined,fgap01.asc,0,59,6,0,TIMEOUT,20000,79.0,79,m.txt,1,control,793,624
TIMEOUT,undefined,fgap01.asc,0,51,10,0,TIMEOUT,20000,81.0,81,z.txt,2,control,323,441
CORRECT,undefined,fgap01.asc,0,3,1,0,m,2384,108.0,108,m.txt,3,control,846,143
CORRECT,undefined,fgap01.asc,0,36,4,0,z,11752,60.0,60,z.txt,4,control,444,415
,undefined,fgap01.asc,0,0,6,0,,,173.0,173,z.txt,5,gap,114,424
,undefined,fgap01.asc,0,0,3,0,,,44.0,44,z.txt,6,gap,211,300
,undefined,fgap01.asc,0,0,7,0,,,19.0,19,z.txt,7,gap,891,379
,undefined,fgap01.asc,0,0,1,0,,,83.0,83,z.txt,8,gap,843,100
,undefined,fgap01.asc,0,0,3,0,,,168.0,168,z.txt,9,gap,535,475
CORRECT,undefined,fgap01.asc,0,16,5,0,m,6797,23.0,23,m.txt,10,control,148,488
TIMEOUT,undefined,fgap01.asc,0,66,6,0,TIMEOUT,20000,118.0,118,z.txt,11,control,1095,238
TIMEOUT,undefined,fgap01.asc,0,62,4,0,TIMEOUT,20000,131.0,131,z.txt,12,control,1143,163
TIMEOUT,undefined,fgap01.asc,0,57,10,0,TIMEOUT,20000,48.0,48,m.txt,13,control,453,709
TIMEOUT,undefined,fgap01.asc,0,64,7,0,TIMEOUT,20000,149.0,149,m.txt,14,control,200,415
,undefined,fgap01.asc,0,0,4,0,,,148.0,148,z.txt,15,gap,412,666
,undefined,fgap01.asc,0,0,2,0,,,40.0,40,z.txt,16,gap,1205,358
,undefined,fgap01.asc,0,0,3,0,,,58.0,58,z.txt,17,gap,1235,140
,undefined,fgap01.asc,0,0,2,0,,,163.0,163,m.txt,18,gap,365,264
,undefined,fgap01.asc,0,0,3,0,,,162.0,162,m.txt,19,gap,254,744
TIMEOUT,undefined,fgap01.asc,0,60,3,0,TIMEOUT,20000,190.0,190,m.txt,20,control,815,37
TIMEOUT,undefined,fgap01.asc,0,65,2,0,TIMEOUT,20000,144.0,144,z.txt,21,control,758,774
TIMEOUT,undefined,fgap01.asc,0,60,4,0,TIMEOUT,20000,66.0,66,m.txt,22,control,1204,266
TIMEOUT,undefined,fgap01.asc,0,61,2,0,TIMEOUT,20000,92.0,92,m.txt,23,control,64,707
TIMEOUT,undefined,fgap01.asc,0,65,5,0,TIMEOUT,20000,57.0,57,z.txt,24,control,741,242
,undefined,fgap01.asc,0,0,2,0,,,17.0,17,m.txt,25,gap,997,424
,undefined,fgap01.asc,0,0,4,0,,,194.0,194,z.txt,26,gap,580,702
,undefined,fgap01.asc,0,0,4,0,,,128.0,128,z.txt,27,gap,1032,334
,undefined,fgap01.asc,0,0,7,0,,,12.0,12,m.txt,28,gap,588,70
,undefined,fgap01.asc,0,0,2,0,,,103.0,103,z.txt,29,gap,622,480
INCORRECT,undefined,fgap01.asc,0,23,2,0,z,9786,35.0,35,m.txt,30,control,23,354
CORRECT,undefined,fgap01.asc,0,6,1,0,z,1947,156.0,156,z.txt,31,control,1086,610
TIMEOUT,undefined,fgap01.asc,0,62,4,0,TIMEOUT,20000,32.0,32,m.txt,32,control,220,283
TIMEOUT,undefined,fgap01.asc,0,63,1,0,TIMEOUT,20000,101.0,101,m.txt,33,control,414,499
TIMEOUT,undefined,fgap01.asc,0,53,1,0,TIMEOUT,20000,102.0,102,z.txt,34,control,229,617
,undefined,fgap01.asc,0,0,1,0,,,186.0,186,m.txt,35,gap,1228,164
,undefined,fgap01.asc,0,0,1,0,,,141.0,141,m.txt,36,gap,289,116
,undefined,fgap01.asc,0,0,4,0,,,5.0,5,m.txt,37,gap,396,111
,undefined,fgap01.asc,0,0,0,0,,,94.0,94,m.txt,38,gap,792,153
,undefined,fgap01.asc,0,0,2,0,,,27.0,27,z.txt,39,gap,641,31
CORRECT,undefined,fgap01.asc,0,7,1,0,m,4243,51.0,51,m.txt,40,control,1102,315
CORRECT,undefined,fgap01.asc,0,3,1,0,m,1601,52.0,52,m.txt,41,control,1117,166
CORRECT,undefined,fgap01.asc,0,3,1,0,m,2230,176.0,176,m.txt,42,control,1003,675
TIMEOUT,undefined,fgap01.asc,0,65,6,0,TIMEOUT,20000,100.0,100,m.txt,43,control,467,794
CORRECT,undefined,fgap01.asc,0,14,5,0,m,9619,73.0,73,m.txt,44,control,635,788
,undefined,fgap01.asc,0,0,1,0,,,22.0,22,m.txt,45,gap,802,432
,undefined,fgap01.asc,0,0,0,0,,,178.0,178,m.txt,46,gap,218,557
,undefined,fgap01.asc,0,0,0,0,,,90.0,90,z.txt,47,gap,695,164
,undefined,fgap01.asc,0,0,1,0,,,50.0,50,z.txt,48,gap,225,108
,undefined,fgap01.asc,0,0,9,0,,,181.0,181,z.txt,49,gap,1143,206
CORRECT,undefined,fgap01.asc,0,33,2,0,m,11270,145.0,145,m.txt,50,control,172,58
TIMEOUT,undefined,fgap01.asc,0,62,2,0,TIMEOUT,20000,64.0,64,z.txt,51,control,444,775
TIMEOUT,undefined,fgap01.asc,0,63,2,0,TIMEOUT,20000,159.0,159,m.txt,52,control,191,753
CORRECT,undefined,fgap01.asc,0,24,2,0,m,9350,123.0,123,m.txt,53,control,124,576
CORRECT,undefined,fgap01.asc,0,1,1,0,m,742,150.0,150,m.txt,54,control,670,458
,undefined,fgap01.asc,0,0,1,0,,,119.0,119,m.txt,55,gap,423,816
,undefined,fgap01.asc,0,0,3,0,,,74.0,74,z.txt,56,gap,230,639
,undefined,fgap01.asc,0,0,9,0,,,59.0,59,z.txt,57,gap,448,433
,undefined,fgap01.asc,0,0,4,0,,,1.0,1,z.txt,58,gap,941,527
,undefined,fgap01.asc,0,0,1,0,,,0.0,0,m.txt,59,gap,957,673
CORRECT,undefined,fgap01.asc,0,6,1,0,z,3374,77.0,77,z.txt,60,control,1220,595
TIMEOUT,undefined,fgap01.asc,0,68,7,0,TIMEOUT,20000,109.0,109,m.txt,61,control,1246,279
TIMEOUT,undefined,fgap01.asc,0,65,2,0,TIMEOUT,20000,68.0,68,z.txt,62,control,1191,444
TIMEOUT,undefined,fgap01.asc,0,63,6,0,TIMEOUT,20000,126.0,126,z.txt,63,control,281,758
CORRECT,undefined,fgap01.asc,0,7,0,0,z,2572,158.0,158,z.txt,64,control,1223,357
,undefined,fgap01.asc,0,0,1,0,,,121.0,121,m.txt,65,gap,104,411
,undefined,fgap01.asc,0,0,2,0,,,167.0,167,m.txt,66,gap,557,799
,undefined,fgap01.asc,0,0,2,0,,,143.0,143,z.txt,67,gap,662,418
,undefined,fgap01.asc,0,0,2,0,,,105.0,105,z.txt,68,gap,418,347
,undefined,fgap01.asc,0,0,1,0,,,20.0,20,m.txt,69,gap,836,186
TIMEOUT,undefined,fgap01.asc,0,63,1,0,TIMEOUT,20000,187.0,187,z.txt,70,control,670,385
CORRECT,undefined,fgap01.asc,0,46,0,0,z,13754,179.0,179,z.txt,71,control,843,390
TIMEOUT,undefined,fgap01.asc,0,62,1,0,TIMEOUT,20000,96.0,96,z.txt,72,control,316,74
CORRECT,undefined,fgap01.asc,0,4,1,0,m,2546,87.0,87,m.txt,73,control,387,336
CORRECT,undefined,fgap01.asc,0,12,1,0,z,4244,120.0,120,z.txt,74,control,368,366
,undefined,fgap01.asc,0,0,0,0,,,54.0,54,z.txt,75,gap,284,188
,undefined,fgap01.asc,0,0,0,0,,,8.0,8,z.txt,76,gap,59,74
,undefined,fgap01.asc,0,0,2,0,,,136.0,136,m.txt,77,gap,37,407
,undefined,fgap01.asc,0,0,2,0,,,199.0,199,z.txt,78,gap,679,413
,undefined,fgap01.asc,0,0,3,0,,,46.0,46,m.txt,79,gap,1223,420
CORRECT,undefined,fgap01.asc,0,25,0,0,m,7515,75.0,75,m.txt,80,control,988,109
CORRECT,undefined,fgap01.asc,0,48,2,0,m,14718,61.0,61,m.txt,81,control,545,747
TIMEOUT,undefined,fgap01.asc,0,63,2,0,TIMEOUT,20000,16.0,16,z.txt,82,control,345,487
CORRECT,undefined,fgap01.asc,0,14,1,0,m,4819,45.0,45,m.txt,83,control,221,390
CORRECT,undefined,fgap01.asc,0,51,2,0,m,15474,153.0,153,m.txt,84,control,649,123
,undefined,fgap01.asc,0,0,2,0,,,65.0,65,m.txt,85,gap,277,612
,undefined,fgap01.asc,0,0,2,0,,,113.0,113,z.txt,86,gap,1204,363
,undefined,fgap01.asc,0,0,10,0,,,134.0,134,z.txt,87,gap,774,571
,undefined,fgap01.asc,0,0,1,0,,,69.0,69,z.txt,88,gap,645,476
,undefined,fgap01.asc,0,0,2,0,,,78.0,78,m.txt,89,gap,499,395
CORRECT,undefined,fgap01.asc,0,30,1,0,m,9222,165.0,165,m.txt,90,control,1062,297
CORRECT,undefined,fgap01.asc,0,43,1,0,m,15247,182.0,182,m.txt,91,control,918,440
CORRECT,undefined,fgap01.asc,0,4,4,0,m,6096,18.0,18,m.txt,92,control,536,202
CORRECT,undefined,fgap01.asc,0,42,7,0,m,15180,55.0,55,m.txt,93,control,35,351
TIMEOUT,undefined,fgap01.asc,0,48,3,0,TIMEOUT,20000,85.0,85,m.txt,94,control,1015,549
,undefined,fgap01.asc,0,0,1,0,,,106.0,106,m.txt,95,gap,688,481
,undefined,fgap01.asc,0,0,2,0,,,70.0,70,m.txt,96,gap,723,431
,undefined,fgap01.asc,0,0,2,0,,,189.0,189,m.txt,97,gap,1187,635
,undefined,fgap01.asc,0,0,1,0,,,89.0,89,z.txt,98,gap,346,587
,undefined,fgap01.asc,0,0,1,0,,,67.0,67,z.txt,99,gap,164,104
CORRECT,undefined,fgap01.asc,0,10,2,0,z,7432,98.0,98,z.txt,100,control,1217,764
CORRECT,undefined,fgap01.asc,0,3,1,0,z,943,117.0,117,z.txt,101,control,735,429
TIMEOUT,undefined,fgap01.asc,0,65,4,0,TIMEOUT,20000,91.0,91,m.txt,102,control,710,431
CORRECT,undefined,fgap01.asc,0,28,1,0,z,8947,169.0,169,z.txt,103,control,140,405
CORRECT,undefined,fgap01.asc,0,1,0,0,m,1034,188.0,188,m.txt,104,control,542,564
,undefined,fgap01.asc,0,0,2,0,,,166.0,166,m.txt,105,gap,505,453
,undefined,fgap01.asc,0,0,1,0,,,37.0,37,m.txt,106,gap,334,90
,undefined,fgap01.asc,0,0,2,0,,,93.0,93,z.txt,107,gap,560,106
,undefined,fgap01.asc,0,0,2,0,,,177.0,177,z.txt,108,gap,350,54
,undefined,fgap01.asc,0,0,2,0,,,196.0,196,m.txt,109,gap,533,824
CORRECT,undefined,fgap01.asc,0,37,2,0,m,11719,124.0,124,m.txt,110,control,714,56
TIMEOUT,undefined,fgap01.asc,0,63,2,0,TIMEOUT,20000,135.0,135,z.txt,111,control,72,93
CORRECT,undefined,fgap01.asc,0,13,6,0,z,3641,116.0,116,z.txt,112,control,1191,694
TIMEOUT,undefined,fgap01.asc,0,67,1,0,TIMEOUT,20000,107.0,107,z.txt,113,control,867,69
TIMEOUT,undefined,fgap01.asc,0,68,4,0,TIMEOUT,20000,26.0,26,m.txt,114,control,599,40
,undefined,fgap01.asc,0,0,2,0,,,13.0,13,m.txt,115,gap,603,711
,undefined,fgap01.asc,0,0,2,0,,,130.0,130,m.txt,116,gap,20,274
,undefined,fgap01.asc,0,0,2,0,,,3.0,3,z.txt,117,gap,1247,644
,undefined,fgap01.asc,0,0,1,0,,,86.0,86,z.txt,118,gap,115,573
,undefined,fgap01.asc,0,0,2,0,,,110.0,110,z.txt,119,gap,161,55
TIMEOUT,undefined,fgap01.asc,0,64,2,0,TIMEOUT,20000,7.0,7,z.txt,120,control,459,246
TIMEOUT,undefined,fgap01.asc,0,61,3,0,TIMEOUT,20000,112.0,112,z.txt,121,control,348,830
CORRECT,undefined,fgap01.asc,0,10,2,0,m,4521,132.0,132,m.txt,122,control,102,531
TIMEOUT,undefined,fgap01.asc,0,65,2,0,TIMEOUT,20000,174.0,174,z.txt,123,control,808,418
TIMEOUT,undefined,fgap01.asc,0,62,2,0,TIMEOUT,20000,24.0,24,z.txt,124,control,569,440
,undefined,fgap01.asc,0,0,4,0,,,185.0,185,z.txt,125,gap,392,651
,undefined,fgap01.asc,0,0,3,0,,,6.0,6,z.txt,126,gap,431,168
,undefined,fgap01.asc,0,0,2,0,,,133.0,133,z.txt,127,gap,31,671
,undefined,fgap01.asc,0,0,6,0,,,137.0,137,m.txt,128,gap,714,131
,undefined,fgap01.asc,0,0,2,0,,,80.0,80,z.txt,129,gap,73,80
CORRECT,undefined,fgap01.asc,0,5,4,0,m,2687,47.0,47,m.txt,130,control,244,591
TIMEOUT,undefined,fgap01.asc,0,62,1,0,TIMEOUT,20000,160.0,160,z.txt,131,control,124,754
TIMEOUT,undefined,fgap01.asc,0,65,3,0,TIMEOUT,20000,41.0,41,z.txt,132,control,999,230
TIMEOUT,undefined,fgap01.asc,0,62,5,0,TIMEOUT,20000,129.0,129,z.txt,133,control,1222,780
CORRECT,undefined,fgap01.asc,0,18,2,0,z,8417,193.0,193,z.txt,134,control,541,487
,undefined,fgap01.asc,0,0,3,0,,,164.0,164,z.txt,135,gap,35,42
,undefined,fgap01.asc,0,0,6,0,,,95.0,95,z.txt,136,gap,719,168
,undefined,fgap01.asc,0,0,2,0,,,30.0,30,z.txt,137,gap,92,583
,undefined,fgap01.asc,0,0,3,0,,,62.0,62,m.txt,138,gap,240,302
,undefined,fgap01.asc,0,0,2,0,,,38.0,38,z.txt,139,gap,754,358
CORRECT,undefined,fgap01.asc,0,11,2,0,z,3479,56.0,56,z.txt,140,control,833,467
CORRECT,undefined,fgap01.asc,0,13,1,0,m,6380,197.0,197,m.txt,141,control,670,577
TIMEOUT,undefined,fgap01.asc,0,63,2,0,TIMEOUT,20000,142.0,142,m.txt,142,control,455,793
CORRECT,undefined,fgap01.asc,0,14,1,0,z,4381,171.0,171,z.txt,143,control,463,485
CORRECT,undefined,fgap01.asc,0,17,2,0,z,5294,198.0,198,z.txt,144,control,1159,91
,undefined,fgap01.asc,0,0,4,0,,,99.0,99,m.txt,145,gap,349,443
,undefined,fgap01.asc,0,0,2,0,,,63.0,63,m.txt,146,gap,183,142
,undefined,fgap01.asc,0,0,2,0,,,29.0,29,m.txt,147,gap,466,109
,undefined,fgap01.asc,0,0,1,0,,,114.0,114,m.txt,148,gap,786,106
,undefined,fgap01.asc,0,0,1,0,,,154.0,154,z.txt,149,gap,136,459
CORRECT,undefined,fgap01.asc,0,5,1,0,m,2100,125.0,125,m.txt,150,control,1151,540
CORRECT,undefined,fgap01.asc,0,22,3,0,z,7359,122.0,122,z.txt,151,control,252,781
TIMEOUT,undefined,fgap01.asc,0,62,1,0,TIMEOUT,20000,11.0,11,z.txt,152,control,542,665
TIMEOUT,undefined,fgap01.asc,0,57,1,0,TIMEOUT,20000,33.0,33,m.txt,153,control,49,414
CORRECT,undefined,fgap01.asc,0,21,3,0,m,10839,155.0,155,m.txt,154,control,1135,466
,undefined,fgap01.asc,0,0,3,0,,,146.0,146,m.txt,155,gap,916,26
,undefined,fgap01.asc,0,0,3,0,,,140.0,140,m.txt,156,gap,630,101
,undefined,fgap01.asc,0,0,1,0,,,195.0,195,z.txt,157,gap,309,49
,undefined,fgap01.asc,0,0,1,0,,,34.0,34,m.txt,158,gap,1240,437
,undefined,fgap01.asc,0,0,2,0,,,42.0,42,m.txt,159,gap,128,413
CORRECT,undefined,fgap01.asc,0,56,2,0,m,17473,39.0,39,m.txt,160,control,125,335
CORRECT,undefined,fgap01.asc,0,7,0,0,m,2304,14.0,14,m.txt,161,control,980,81
TIMEOUT,undefined,fgap01.asc,0,62,1,0,TIMEOUT,20000,15.0,15,z.txt,162,control,27,41
TIMEOUT,undefined,fgap01.asc,0,59,2,0,TIMEOUT,20000,170.0,170,z.txt,163,control,552,139
CORRECT,undefined,fgap01.asc,0,19,2,0,m,12976,53.0,53,m.txt,164,control,704,528
,undefined,fgap01.asc,0,0,1,0,,,127.0,127,m.txt,165,gap,599,82
,undefined,fgap01.asc,0,0,1,0,,,161.0,161,z.txt,166,gap,427,254
,undefined,fgap01.asc,0,0,4,0,,,82.0,82,m.txt,167,gap,1251,511
,undefined,fgap01.asc,0,0,1,0,,,192.0,192,z.txt,168,gap,43,693
,undefined,fgap01.asc,0,0,2,0,,,97.0,97,z.txt,169,gap,458,218
