eye_used,file,image,inst,nGap,nSacc,n_blink,outlier,response,rt,trialId
undefined,12.asc,P002.png,search,0,36,9,0,w,14801,0
undefined,12.asc,P001.png,search,0,37,6,0,timeout,15005,1
undefined,12.asc,F017.png,search,0,44,5,0,timeout,15004,2
undefined,12.asc,S012.png,search,0,49,3,0,timeout,15004,3
undefined,12.asc,F031.png,search,0,45,7,0,timeout,15004,4
undefined,12.asc,S028.png,search,0,46,5,0,timeout,15004,5
undefined,12.asc,F003.png,search,0,46,3,0,timeout,15004,6
undefined,12.asc,F008.png,search,0,41,4,0,timeout,15004,7
undefined,12.asc,S005.png,search,0,38,3,0,timeout,15003,8
undefined,12.asc,S006.png,search,0,40,3,0,timeout,15004,9
undefined,12.asc,F046.png,search,0,49,2,0,timeout,15004,10
undefined,12.asc,S018.png,search,0,42,5,0,timeout,15004,11
undefined,12.asc,F036.png,search,0,48,2,0,timeout,15004,12
undefined,12.asc,F032.png,search,0,44,5,0,timeout,15004,13
undefined,12.asc,F019.png,search,0,41,1,0,timeout,15004,14
undefined,12.asc,F000.png,search,0,44,3,0,timeout,15005,15
undefined,12.asc,F024.png,search,0,49,3,0,timeout,15004,16
undefined,12.asc,F048.png,search,0,49,1,0,timeout,15003,17
undefined,12.asc,S049.png,search,0,47,4,0,timeout,15004,18
undefined,12.asc,S039.png,search,0,30,2,0,w,10599,19
undefined,12.asc,S040.png,search,0,51,1,0,timeout,15004,20
undefined,12.asc,S020.png,search,0,50,0,0,timeout,15004,21
undefined,12.asc,S025.png,search,0,52,1,0,timeout,15004,22
undefined,12.asc,F027.png,search,0,48,2,0,timeout,15003,23
undefined,12.asc,S036.png,search,0,32,1,0,w,10548,24
undefined,12.asc,S046.png,search,0,46,2,0,timeout,15004,25
undefined,12.asc,S042.png,search,0,49,1,0,timeout,15005,26
undefined,12.asc,S031.png,search,0,48,1,0,timeout,15005,27
undefined,12.asc,S010.png,search,0,52,1,0,timeout,15003,28
undefined,12.asc,S021.png,search,0,49,1,0,timeout,15004,29
undefined,12.asc,S041.png,search,0,45,2,0,timeout,15005,30
undefined,12.asc,F044.png,search,0,44,1,0,timeout,15004,31
undefined,12.asc,S022.png,search,0,47,2,0,timeout,15005,32
undefined,12.asc,F006.png,search,0,43,1,0,timeout,15004,33
undefined,12.asc,S027.png,search,0,49,2,0,timeout,15004,34
undefined,12.asc,F011.png,search,0,45,1,0,timeout,15004,35
undefined,12.asc,F023.png,search,0,43,1,0,timeout,15003,36
undefined,12.asc,S047.png,search,0,47,3,0,timeout,15004,37
undefined,12.asc,S009.png,search,0,52,1,0,timeout,15004,38
undefined,12.asc,F040.png,search,0,50,3,0,timeout,15004,39
undefined,12.asc,S014.png,search,0,48,0,0,timeout,15004,40
undefined,12.asc,S013.png,search,0,46,2,0,timeout,15004,41
undefined,12.asc,F012.png,search,0,43,1,0,timeout,15005,42
undefined,12.asc,F026.png,search,0,40,1,0,w,13333,43
undefined,12.asc,F021.png,search,0,26,2,0,timeout,15004,44
undefined,12.asc,F009.png,search,0,48,4,0,timeout,15004,45
undefined,12.asc,S019.png,search,0,49,3,0,timeout,15004,46
undefined,12.asc,F010.png,search,0,47,1,0,timeout,15004,47
undefined,12.asc,S035.png,search,0,14,0,0,;,5666,48
undefined,12.asc,F042.png,search,0,53,0,0,timeout,15005,49
undefined,12.asc,F038.png,search,0,45,1,0,timeout,15004,50
undefined,12.asc,S024.png,search,0,47,0,0,timeout,15004,51
undefined,12.asc,S034.png,search,0,45,2,0,timeout,15005,52
undefined,12.asc,S033.png,search,0,46,0,0,timeout,15004,53
undefined,12.asc,F004.png,search,0,5,1,0,w,1646,54
undefined,12.asc,S003.png,search,0,40,0,0,timeout,15004,55
undefined,12.asc,F028.png,search,0,48,0,0,timeout,15004,56
undefined,12.asc,F035.png,search,0,52,3,0,timeout,15004,57
undefined,12.asc,S008.png,search,0,50,0,0,timeout,15004,58
undefined,12.asc,S000.png,search,0,42,1,0,w,12103,59
undefined,12.asc,F001.png,search,0,41,5,0,timeout,15004,60
undefined,12.asc,F045.png,search,0,49,3,0,timeout,15004,61
undefined,12.asc,F039.png,search,0,50,3,0,timeout,15004,62
undefined,12.asc,S015.png,search,0,50,4,0,timeout,15004,63
undefined,12.asc,F014.png,search,0,48,2,0,timeout,15004,64
undefined,12.asc,F043.png,search,0,53,3,0,timeout,15004,65
undefined,12.asc,S030.png,search,0,51,2,0,timeout,15003,66
undefined,12.asc,F022.png,search,0,47,5,0,timeout,15004,67
undefined,12.asc,S048.png,search,0,23,0,0,;,7823,68
undefined,12.asc,S007.png,search,0,46,1,0,timeout,15004,69
undefined,12.asc,S001.png,search,0,49,2,0,timeout,15004,70
undefined,12.asc,F002.png,search,0,9,0,0,;,3117,71
undefined,12.asc,S038.png,search,0,18,0,0,w,5886,72
undefined,12.asc,S045.png,search,0,50,1,0,timeout,15004,73
undefined,12.asc,S023.png,search,0,48,2,0,timeout,15004,74
undefined,12.asc,F015.png,search,0,45,2,0,timeout,15004,75
undefined,12.asc,S029.png,search,0,47,1,0,timeout,15004,76
undefined,12.asc,F025.png,search,0,4,0,0,w,1950,77
undefined,12.asc,F033.png,search,0,31,1,0,;,11061,78
undefined,12.asc,S002.png,search,0,48,0,0,timeout,15004,79
undefined,12.asc,F020.png,search,0,53,1,0,timeout,15004,80
undefined,12.asc,F018.png,search,0,46,6,0,timeout,15004,81
undefined,12.asc,F013.png,search,0,49,2,0,timeout,15004,82
undefined,12.asc,F029.png,search,0,48,1,0,timeout,15005,83
undefined,12.asc,S017.png,search,0,49,2,0,timeout,15004,84
undefined,12.asc,F037.png,search,0,34,0,0,w,11070,85
undefined,12.asc,F007.png,search,0,48,1,0,timeout,15005,86
undefined,12.asc,S037.png,search,0,16,0,0,w,5312,87
undefined,12.asc,F049.png,search,0,49,1,0,timeout,15005,88
undefined,12.asc,S004.png,search,0,38,4,0,timeout,15004,89
undefined,12.asc,F016.png,search,0,25,1,0,w,9414,90
undefined,12.asc,F030.png,search,0,7,0,0,;,3317,91
undefined,12.asc,S043.png,search,0,49,1,0,timeout,15004,92
undefined,12.asc,F047.png,search,0,34,1,0,;,10759,93
undefined,12.asc,F034.png,search,0,9,0,0,;,3542,94
undefined,12.asc,S032.png,search,0,52,1,0,timeout,15004,95
undefined,12.asc,F041.png,search,0,45,2,0,timeout,15004,96
undefined,12.asc,S016.png,search,0,37,3,0,timeout,15004,97
undefined,12.asc,S011.png,search,0,48,2,0,timeout,15004,98
undefined,12.asc,F005.png,search,0,48,0,0,timeout,15005,99
undefined,12.asc,S044.png,search,0,16,0,0,;,5021,100
undefined,12.asc,S026.png,search,0,51,1,0,timeout,15005,101
undefined,05.asc,P002.png,memory,0,44,11,0,timeout,15003,0
undefined,05.asc,P001.png,memory,0,43,3,0,timeout,15004,1
undefined,05.asc,S036.png,memory,0,41,5,0,timeout,15004,2
undefined,05.asc,S035.png,memory,0,39,4,0,timeout,15004,3
undefined,05.asc,S044.png,memory,0,38,3,0,timeout,15004,4
undefined,05.asc,F009.png,memory,0,38,1,0,timeout,15004,5
undefined,05.asc,S028.png,memory,0,39,2,0,timeout,15004,6
undefined,05.asc,F039.png,memory,0,37,1,0,timeout,15005,7
undefined,05.asc,S000.png,memory,0,32,1,0,timeout,15004,8
undefined,05.asc,F010.png,memory,0,40,1,0,timeout,15005,9
undefined,05.asc,F026.png,memory,0,43,2,0,timeout,15004,10
undefined,05.asc,F045.png,memory,0,42,3,0,timeout,15004,11
undefined,05.asc,S006.png,memory,0,41,3,0,timeout,15004,12
undefined,05.asc,F029.png,memory,0,39,3,0,timeout,15004,13
undefined,05.asc,S049.png,memory,0,38,4,0,timeout,15006,14
undefined,05.asc,S003.png,memory,0,40,2,0,timeout,15004,15
undefined,05.asc,F014.png,memory,0,40,2,0,timeout,15004,16
undefined,05.asc,F018.png,memory,0,42,3,0,timeout,15004,17
undefined,05.asc,F034.png,memory,0,38,2,0,timeout,15004,18
undefined,05.asc,S020.png,memory,0,38,5,0,timeout,15004,19
undefined,05.asc,S032.png,memory,0,46,5,0,timeout,15004,20
undefined,05.asc,F021.png,memory,0,36,3,0,timeout,15004,21
undefined,05.asc,F048.png,memory,0,35,2,0,timeout,15005,22
undefined,05.asc,F044.png,memory,0,41,0,0,timeout,15004,23
undefined,05.asc,S045.png,memory,0,32,2,0,timeout,15004,24
undefined,05.asc,S005.png,memory,0,46,2,0,timeout,15004,25
undefined,05.asc,F016.png,memory,0,40,2,0,timeout,15004,26
undefined,05.asc,F041.png,memory,0,43,1,0,timeout,15004,27
undefined,05.asc,S034.png,memory,0,38,2,0,timeout,15005,28
undefined,05.asc,F008.png,memory,0,43,0,0,timeout,15004,29
undefined,05.asc,S014.png,memory,0,40,3,0,timeout,15004,30
undefined,05.asc,S001.png,memory,0,34,4,0,timeout,15004,31
undefined,05.asc,F005.png,memory,0,35,2,0,timeout,15005,32
undefined,05.asc,S007.png,memory,0,39,7,0,timeout,15004,33
undefined,05.asc,F030.png,memory,0,39,4,0,timeout,15005,34
undefined,05.asc,S018.png,memory,0,42,3,0,timeout,15004,35
undefined,05.asc,S026.png,memory,0,44,3,0,timeout,15004,36
undefined,05.asc,S030.png,memory,0,42,3,0,timeout,15005,37
undefined,05.asc,F043.png,memory,0,38,3,0,timeout,15004,38
undefined,05.asc,S002.png,memory,0,41,7,0,timeout,15004,39
undefined,05.asc,F035.png,memory,0,43,2,0,timeout,15004,40
undefined,05.asc,S019.png,memory,0,38,1,0,timeout,15004,41
undefined,05.asc,F000.png,memory,0,43,3,0,timeout,15004,42
undefined,05.asc,S021.png,memory,0,39,2,0,timeout,15004,43
undefined,05.asc,S041.png,memory,0,40,3,0,timeout,15004,44
undefined,05.asc,F007.png,memory,0,45,0,0,timeout,15004,45
undefined,05.asc,S025.png,memory,0,41,8,0,timeout,15005,46
undefined,05.asc,F015.png,memory,0,42,6,0,timeout,15004,47
undefined,05.asc,F049.png,memory,0,44,3,0,timeout,15004,48
undefined,05.asc,F031.png,memory,0,42,1,0,timeout,15004,49
undefined,05.asc,F006.png,memory,0,38,7,0,timeout,15004,50
undefined,05.asc,F038.png,memory,0,39,10,0,timeout,15005,51
undefined,05.asc,F047.png,memory,0,43,6,0,timeout,15005,52
undefined,05.asc,F025.png,memory,0,43,10,0,timeout,15003,53
undefined,05.asc,F011.png,memory,0,43,9,0,timeout,15005,54
undefined,05.asc,S047.png,memory,0,40,14,0,timeout,15005,55
undefined,05.asc,S038.png,memory,0,41,11,0,timeout,15004,56
undefined,05.asc,F003.png,memory,0,43,11,0,timeout,15005,57
undefined,05.asc,F042.png,memory,0,39,10,0,timeout,15004,58
undefined,05.asc,F019.png,memory,0,46,6,0,timeout,15004,59
undefined,05.asc,S011.png,memory,0,38,7,0,timeout,15005,60
undefined,05.asc,F023.png,memory,0,39,10,0,timeout,15004,61
undefined,05.asc,S009.png,memory,0,37,10,0,timeout,15005,62
undefined,05.asc,F017.png,memory,0,34,11,0,timeout,15004,63
undefined,05.asc,F024.png,memory,0,43,8,0,timeout,15004,64
undefined,05.asc,F022.png,memory,0,42,9,0,timeout,15004,65
undefined,05.asc,S012.png,memory,0,44,6,0,timeout,15004,66
undefined,05.asc,S004.png,memory,0,42,3,0,timeout,15005,67
undefined,05.asc,S016.png,memory,0,41,7,0,timeout,15004,68
undefined,05.asc,S040.png,memory,0,38,12,0,timeout,15005,69
undefined,05.asc,S017.png,memory,0,39,15,0,timeout,15003,70
undefined,05.asc,F027.png,memory,0,36,8,0,timeout,15004,71
undefined,05.asc,S039.png,memory,0,36,12,0,timeout,15003,72
undefined,05.asc,S024.png,memory,0,33,8,0,timeout,15004,73
undefined,05.asc,S031.png,memory,0,31,10,0,timeout,15004,74
undefined,05.asc,S046.png,memory,0,39,10,0,timeout,15004,75
undefined,05.asc,S037.png,memory,0,41,10,0,timeout,15006,76
undefined,05.asc,S043.png,memory,0,42,6,0,timeout,15004,77
undefined,05.asc,S015.png,memory,0,39,9,0,timeout,15004,78
undefined,05.asc,S013.png,memory,0,47,4,0,timeout,15006,79
undefined,05.asc,F037.png,memory,0,42,2,0,timeout,15004,80
undefined,05.asc,F036.png,memory,0,48,6,0,timeout,15003,81
undefined,05.asc,F012.png,memory,0,43,4,0,timeout,15004,82
undefined,05.asc,S048.png,memory,0,35,8,0,timeout,15004,83
undefined,05.asc,F002.png,memory,0,45,5,0,timeout,15004,84
undefined,05.asc,S033.png,memory,0,40,7,0,timeout,15004,85
undefined,05.asc,S008.png,memory,0,43,11,0,timeout,15004,86
undefined,05.asc,S027.png,memory,0,44,7,0,timeout,15004,87
undefined,05.asc,S022.png,memory,0,41,8,0,timeout,15004,88
undefined,05.asc,S010.png,memory,0,43,5,0,timeout,15004,89
undefined,05.asc,F028.png,memory,0,41,6,0,timeout,15004,90
undefined,05.asc,F013.png,memory,0,40,6,0,timeout,15004,91
undefined,05.asc,F040.png,memory,0,38,5,0,timeout,15003,92
undefined,05.asc,F046.png,memory,0,40,8,0,timeout,15005,93
undefined,05.asc,S023.png,memory,0,32,11,0,timeout,15004,94
undefined,05.asc,F032.png,memory,0,42,5,0,timeout,15004,95
undefined,05.asc,F004.png,memory,0,41,6,0,timeout,15004,96
undefined,05.asc,F020.png,memory,0,46,2,0,timeout,15004,97
undefined,05.asc,F033.png,memory,0,36,9,0,timeout,15004,98
undefined,05.asc,S042.png,memory,0,45,6,0,timeout,15004,99
undefined,05.asc,S029.png,memory,0,37,8,0,timeout,15003,100
undefined,05.asc,F001.png,memory,0,41,8,0,timeout,15004,101
undefined,16.asc,P002.png,free,0,39,4,0,timeout,15004,0
undefined,16.asc,P001.png,free,0,41,3,0,timeout,15004,1
undefined,16.asc,S025.png,free,0,41,5,0,timeout,15004,2
undefined,16.asc,F048.png,free,0,32,5,0,timeout,15005,3
undefined,16.asc,S033.png,free,0,40,8,0,timeout,15004,4
undefined,16.asc,F013.png,free,0,39,2,0,timeout,15004,5
undefined,16.asc,S018.png,free,0,41,0,0,timeout,15004,6
undefined,16.asc,S047.png,free,0,34,1,0,timeout,15004,7
undefined,16.asc,S019.png,free,0,37,0,0,timeout,15004,8
undefined,16.asc,F045.png,free,0,35,0,0,timeout,15004,9
undefined,16.asc,F033.png,free,0,40,1,0,timeout,15004,10
undefined,16.asc,S035.png,free,0,34,0,0,timeout,15004,11
undefined,16.asc,S038.png,free,0,35,1,0,timeout,15005,12
undefined,16.asc,S001.png,free,0,33,1,0,timeout,15004,13
undefined,16.asc,S037.png,free,0,30,3,0,timeout,15005,14
undefined,16.asc,F040.png,free,0,32,1,0,timeout,15004,15
undefined,16.asc,S024.png,free,0,38,0,0,timeout,15004,16
undefined,16.asc,F015.png,free,0,28,2,0,timeout,15004,17
undefined,16.asc,F036.png,free,0,41,1,0,timeout,15004,18
undefined,16.asc,S015.png,free,0,35,1,0,timeout,15004,19
undefined,16.asc,S010.png,free,0,36,4,0,timeout,15004,20
undefined,16.asc,S009.png,free,0,39,0,0,timeout,15004,21
undefined,16.asc,F007.png,free,0,35,0,0,timeout,15004,22
undefined,16.asc,S036.png,free,0,37,1,0,timeout,15004,23
undefined,16.asc,S028.png,free,0,35,2,0,timeout,15005,24
undefined,16.asc,S026.png,free,0,31,4,0,timeout,15004,25
undefined,16.asc,F028.png,free,0,31,3,0,timeout,15004,26
undefined,16.asc,F026.png,free,0,36,1,0,timeout,15004,27
undefined,16.asc,F034.png,free,0,32,2,0,timeout,15004,28
undefined,16.asc,F019.png,free,0,34,4,0,timeout,15004,29
undefined,16.asc,S007.png,free,0,32,3,0,timeout,15004,30
undefined,16.asc,S012.png,free,0,36,0,0,timeout,15004,31
undefined,16.asc,S022.png,free,0,36,0,0,timeout,15004,32
undefined,16.asc,F014.png,free,0,34,0,0,timeout,15004,33
undefined,16.asc,S021.png,free,0,35,1,0,timeout,15005,34
undefined,16.asc,F037.png,free,0,33,1,0,timeout,15004,35
undefined,16.asc,F032.png,free,0,39,2,0,timeout,15004,36
undefined,16.asc,F000.png,free,0,34,1,0,timeout,15004,37
undefined,16.asc,F020.png,free,0,29,0,0,timeout,15004,38
undefined,16.asc,S027.png,free,0,33,0,0,timeout,15003,39
undefined,16.asc,F044.png,free,0,35,0,0,timeout,15004,40
undefined,16.asc,F018.png,free,0,40,3,0,timeout,15004,41
undefined,16.asc,S045.png,free,0,30,0,0,timeout,15004,42
undefined,16.asc,S029.png,free,0,34,3,0,timeout,15003,43
undefined,16.asc,F024.png,free,0,39,2,0,timeout,15005,44
undefined,16.asc,S043.png,free,0,27,1,0,timeout,15004,45
undefined,16.asc,F012.png,free,0,37,1,0,timeout,15004,46
undefined,16.asc,F010.png,free,0,34,2,0,timeout,15005,47
undefined,16.asc,F023.png,free,0,31,3,0,timeout,15004,48
undefined,16.asc,F030.png,free,0,27,3,0,timeout,15004,49
undefined,16.asc,S044.png,free,0,37,2,0,timeout,15004,50
undefined,16.asc,S049.png,free,0,35,3,0,timeout,15004,51
undefined,16.asc,F041.png,free,0,38,1,0,timeout,15004,52
undefined,16.asc,S003.png,free,0,30,4,0,timeout,15004,53
undefined,16.asc,S023.png,free,0,36,3,0,timeout,15004,54
undefined,16.asc,F004.png,free,0,34,3,0,timeout,15004,55
undefined,16.asc,F031.png,free,0,38,0,0,timeout,15004,56
undefined,16.asc,F042.png,free,0,33,7,0,timeout,15004,57
undefined,16.asc,S020.png,free,0,34,0,0,timeout,15004,58
undefined,16.asc,S040.png,free,0,35,1,0,timeout,15004,59
undefined,16.asc,F009.png,free,0,28,3,0,timeout,15004,60
undefined,16.asc,F021.png,free,0,31,4,0,timeout,15004,61
undefined,16.asc,S013.png,free,0,35,4,0,timeout,15004,62
undefined,16.asc,S014.png,free,0,38,1,0,timeout,15004,63
undefined,16.asc,S039.png,free,0,36,1,0,timeout,15005,64
undefined,16.asc,S041.png,free,0,37,0,0,timeout,15005,65
undefined,16.asc,F038.png,free,0,32,9,0,timeout,15004,66
undefined,16.asc,F035.png,free,0,33,4,0,timeout,15004,67
undefined,16.asc,S002.png,free,0,33,6,0,timeout,15004,68
undefined,16.asc,F005.png,free,0,34,9,0,timeout,15005,69
undefined,16.asc,F025.png,free,0,33,5,0,timeout,15004,70
undefined,16.asc,F016.png,free,0,30,4,0,timeout,15004,71
undefined,16.asc,F001.png,free,0,35,7,0,timeout,15004,72
undefined,16.asc,F047.png,free,0,31,4,0,timeout,15005,73
undefined,16.asc,S031.png,free,0,34,4,0,timeout,15004,74
undefined,16.asc,F003.png,free,0,36,6,0,timeout,15004,75
undefined,16.asc,F011.png,free,0,37,8,0,timeout,15005,76
undefined,16.asc,S008.png,free,0,35,7,0,timeout,15005,77
undefined,16.asc,F017.png,free,0,33,3,0,timeout,15005,78
undefined,16.asc,F002.png,free,0,40,3,0,timeout,15004,79
undefined,16.asc,S005.png,free,0,37,3,0,timeout,15005,80
undefined,16.asc,S046.png,free,0,35,4,0,timeout,15004,81
undefined,16.asc,S006.png,free,0,35,1,0,timeout,15004,82
undefined,16.asc,S034.png,free,0,26,3,0,timeout,15004,83
undefined,16.asc,S042.png,free,0,31,2,0,timeout,15004,84
undefined,16.asc,F049.png,free,0,36,5,0,timeout,15004,85
undefined,16.asc,S030.png,free,0,35,4,0,timeout,15004,86
undefined,16.asc,F027.png,free,0,36,3,0,timeout,15005,87
undefined,16.asc,F022.png,free,0,36,8,0,timeout,15004,88
undefined,16.asc,F039.png,free,0,35,6,0,timeout,15004,89
undefined,16.asc,S004.png,free,0,35,9,0,timeout,15004,90
undefined,16.asc,S048.png,free,0,42,2,0,timeout,15004,91
undefined,16.asc,F046.png,free,0,32,2,0,timeout,15004,92
undefined,16.asc,S000.png,free,0,33,6,0,timeout,15005,93
undefined,16.asc,S017.png,free,0,36,5,0,timeout,15004,94
undefined,16.asc,S032.png,free,0,40,2,0,timeout,15004,95
undefined,16.asc,S011.png,free,0,34,3,0,timeout,15004,96
undefined,16.asc,F043.png,free,0,37,6,0,timeout,15004,97
undefined,16.asc,F008.png,free,0,33,5,0,timeout,15004,98
undefined,16.asc,F029.png,free,0,35,5,0,timeout,15004,99
undefined,16.asc,S016.png,free,0,32,3,0,timeout,15003,100
undefined,16.asc,F006.png,free,0,33,3,0,timeout,15004,101
undefined,02.asc,P002.png,memory,0,41,4,0,timeout,15005,0
undefined,02.asc,P001.png,memory,0,43,3,0,timeout,15004,1
undefined,02.asc,S002.png,memory,0,42,6,0,timeout,15004,2
undefined,02.asc,S013.png,memory,0,33,1,0,timeout,15003,3
undefined,02.asc,S009.png,memory,0,42,3,0,timeout,15005,4
undefined,02.asc,F042.png,memory,0,31,4,0,timeout,15006,5
undefined,02.asc,F025.png,memory,0,47,1,0,timeout,15004,6
undefined,02.asc,F011.png,memory,0,34,4,0,timeout,15005,7
undefined,02.asc,F000.png,memory,0,45,5,0,timeout,15004,8
undefined,02.asc,F012.png,memory,0,40,5,0,timeout,15004,9
undefined,02.asc,F044.png,memory,0,42,7,0,timeout,15006,10
undefined,02.asc,S010.png,memory,0,53,1,0,timeout,15004,11
undefined,02.asc,F037.png,memory,0,39,8,0,timeout,15004,12
undefined,02.asc,S037.png,memory,0,26,7,0,timeout,15004,13
undefined,02.asc,S017.png,memory,0,46,4,0,timeout,15004,14
undefined,02.asc,F014.png,memory,0,42,3,0,timeout,15005,15
undefined,02.asc,F036.png,memory,0,41,7,0,timeout,15003,16
undefined,02.asc,F007.png,memory,0,37,2,0,timeout,15005,17
undefined,02.asc,F047.png,memory,0,20,4,0,timeout,15004,18
undefined,02.asc,F003.png,memory,0,34,7,0,timeout,15005,19
undefined,02.asc,S030.png,memory,0,34,4,0,timeout,15004,20
undefined,02.asc,S023.png,memory,0,37,5,0,timeout,15004,21
undefined,02.asc,F019.png,memory,0,33,3,0,timeout,15004,22
undefined,02.asc,F010.png,memory,0,14,3,0,timeout,15004,23
undefined,02.asc,F029.png,memory,0,40,9,0,timeout,15005,24
undefined,02.asc,F040.png,memory,0,21,2,0,timeout,15005,25
undefined,02.asc,F023.png,memory,0,50,5,0,timeout,15004,26
undefined,02.asc,S003.png,memory,0,32,7,0,timeout,15004,27
undefined,02.asc,S024.png,memory,0,29,4,0,timeout,15005,28
undefined,02.asc,S000.png,memory,0,45,7,0,timeout,15004,29
undefined,02.asc,F031.png,memory,0,30,5,0,timeout,15004,30
undefined,02.asc,F001.png,memory,0,32,9,0,timeout,15004,31
undefined,02.asc,S031.png,memory,0,30,8,0,timeout,15005,32
undefined,02.asc,S026.png,memory,0,29,4,0,timeout,15004,33
undefined,02.asc,S022.png,memory,0,42,7,0,timeout,15004,34
undefined,02.asc,F015.png,memory,0,37,6,0,timeout,15004,35
undefined,02.asc,F028.png,memory,0,43,4,0,timeout,15005,36
undefined,02.asc,S018.png,memory,0,44,7,0,timeout,15005,37
undefined,02.asc,S021.png,memory,0,31,4,0,timeout,15004,38
undefined,02.asc,F043.png,memory,0,34,6,0,timeout,15004,39
undefined,02.asc,S006.png,memory,0,42,6,0,timeout,15005,40
undefined,02.asc,S012.png,memory,0,44,3,0,timeout,15004,41
undefined,02.asc,S032.png,memory,0,50,2,0,timeout,15004,42
undefined,02.asc,S045.png,memory,0,49,2,0,timeout,15004,43
undefined,02.asc,F035.png,memory,0,32,6,0,timeout,15004,44
undefined,02.asc,F009.png,memory,0,15,4,0,timeout,15005,45
undefined,02.asc,F021.png,memory,0,31,5,0,timeout,15004,46
undefined,02.asc,F016.png,memory,0,46,2,0,timeout,15004,47
undefined,02.asc,S001.png,memory,0,42,3,0,timeout,15004,48
undefined,02.asc,S011.png,memory,0,41,6,0,timeout,15004,49
undefined,02.asc,F008.png,memory,0,42,3,0,timeout,15004,50
undefined,02.asc,S014.png,memory,0,43,5,0,timeout,15003,51
undefined,02.asc,S008.png,memory,0,40,7,0,timeout,15005,52
undefined,02.asc,F041.png,memory,0,12,3,0,timeout,15004,53
undefined,02.asc,S020.png,memory,0,40,7,0,timeout,15004,54
undefined,02.asc,S025.png,memory,0,39,12,0,timeout,15004,55
undefined,02.asc,S007.png,memory,0,35,4,0,timeout,15004,56
undefined,02.asc,F026.png,memory,0,44,5,0,timeout,15004,57
undefined,02.asc,F027.png,memory,0,48,3,0,timeout,15004,58
undefined,02.asc,S046.png,memory,0,44,7,0,timeout,15005,59
undefined,02.asc,S029.png,memory,0,32,12,0,timeout,15005,60
undefined,02.asc,S041.png,memory,0,36,13,0,timeout,15004,61
undefined,02.asc,S033.png,memory,0,41,9,0,timeout,15004,62
undefined,02.asc,S028.png,memory,0,37,12,0,timeout,15005,63
undefined,02.asc,F046.png,memory,0,43,8,0,timeout,15004,64
undefined,02.asc,S015.png,memory,0,39,10,0,timeout,15005,65
undefined,02.asc,F030.png,memory,0,41,7,0,timeout,15004,66
undefined,02.asc,F004.png,memory,0,43,3,0,timeout,15004,67
undefined,02.asc,S047.png,memory,0,40,8,0,timeout,15005,68
undefined,02.asc,F034.png,memory,0,49,3,0,timeout,15004,69
undefined,02.asc,F018.png,memory,0,50,4,0,timeout,15004,70
undefined,02.asc,F017.png,memory,0,43,7,0,timeout,15005,71
undefined,02.asc,F039.png,memory,0,51,3,0,timeout,15004,72
undefined,02.asc,S034.png,memory,0,45,5,0,timeout,15005,73
undefined,02.asc,S027.png,memory,0,50,5,0,timeout,15003,74
undefined,02.asc,S019.png,memory,0,36,9,0,timeout,15004,75
undefined,02.asc,F048.png,memory,0,47,3,0,timeout,15005,76
undefined,02.asc,F002.png,memory,0,48,4,0,timeout,15004,77
undefined,02.asc,S044.png,memory,0,45,6,0,timeout,15003,78
undefined,02.asc,S004.png,memory,0,48,2,0,timeout,15005,79
undefined,02.asc,F005.png,memory,0,46,5,0,timeout,15005,80
undefined,02.asc,S038.png,memory,0,44,4,0,timeout,15005,81
undefined,02.asc,F038.png,memory,0,50,4,0,timeout,15004,82
undefined,02.asc,S016.png,memory,0,31,7,0,timeout,15004,83
undefined,02.asc,S048.png,memory,0,42,7,0,timeout,15004,84
undefined,02.asc,F006.png,memory,0,36,8,0,timeout,15005,85
undefined,02.asc,F020.png,memory,0,43,6,0,timeout,15005,86
undefined,02.asc,F045.png,memory,0,47,5,0,timeout,15004,87
undefined,02.asc,F033.png,memory,0,41,6,0,timeout,15004,88
undefined,02.asc,S049.png,memory,0,36,12,0,timeout,15004,89
undefined,02.asc,F022.png,memory,0,26,6,0,timeout,15005,90
undefined,02.asc,F049.png,memory,0,41,6,0,timeout,15004,91
undefined,02.asc,F013.png,memory,0,43,3,0,timeout,15004,92
undefined,02.asc,F032.png,memory,0,37,5,0,timeout,15004,93
undefined,02.asc,S036.png,memory,0,43,7,0,timeout,15005,94
undefined,02.asc,S042.png,memory,0,45,9,0,timeout,15004,95
undefined,02.asc,S039.png,memory,0,49,6,0,timeout,15003,96
undefined,02.asc,F024.png,memory,0,40,5,0,timeout,15004,97
undefined,02.asc,S035.png,memory,0,44,5,0,timeout,15004,98
undefined,02.asc,S043.png,memory,0,38,5,0,timeout,15004,99
undefined,02.asc,S005.png,memory,0,47,5,0,timeout,15004,100
undefined,02.asc,S040.png,memory,0,38,6,0,timeout,15005,101
undefined,06.asc,P002.png,search,0,30,1,0,w,9893,0
undefined,06.asc,P001.png,search,0,20,4,0,;,9749,1
undefined,06.asc,S027.png,search,0,43,1,0,timeout,15004,2
undefined,06.asc,S006.png,search,0,49,2,0,timeout,15004,3
undefined,06.asc,F000.png,search,0,50,1,0,timeout,15004,4
undefined,06.asc,F037.png,search,0,47,1,0,timeout,15004,5
undefined,06.asc,F023.png,search,0,44,2,0,timeout,15004,6
undefined,06.asc,S019.png,search,0,52,1,0,timeout,15004,7
undefined,06.asc,F047.png,search,0,52,0,0,timeout,15003,8
undefined,06.asc,S018.png,search,0,51,1,0,timeout,15004,9
undefined,06.asc,S034.png,search,0,49,1,0,timeout,15004,10
undefined,06.asc,F026.png,search,0,53,0,0,timeout,15004,11
undefined,06.asc,S042.png,search,0,48,2,0,timeout,15006,12
undefined,06.asc,F017.png,search,0,46,1,0,timeout,15004,13
undefined,06.asc,S021.png,search,0,43,1,0,timeout,15004,14
undefined,06.asc,S012.png,search,0,53,0,0,timeout,15004,15
undefined,06.asc,F015.png,search,0,46,1,0,timeout,15005,16
undefined,06.asc,S011.png,search,0,48,2,0,timeout,15004,17
undefined,06.asc,F003.png,search,0,49,1,0,timeout,15005,18
undefined,06.asc,S015.png,search,0,46,1,0,timeout,15003,19
undefined,06.asc,S009.png,search,0,48,1,0,timeout,15005,20
undefined,06.asc,F016.png,search,0,26,0,0,w,8646,21
undefined,06.asc,F027.png,search,0,50,0,0,timeout,15004,22
undefined,06.asc,F012.png,search,0,55,0,0,timeout,15005,23
undefined,06.asc,S010.png,search,0,56,0,0,timeout,15004,24
undefined,06.asc,S000.png,search,0,15,0,0,w,4734,25
undefined,06.asc,F038.png,search,0,54,0,0,timeout,15004,26
undefined,06.asc,F028.png,search,0,53,1,0,timeout,15003,27
undefined,06.asc,S038.png,search,0,55,1,0,timeout,15004,28
undefined,06.asc,F022.png,search,0,49,0,0,timeout,15005,29
undefined,06.asc,S007.png,search,0,51,1,0,timeout,15004,30
undefined,06.asc,S044.png,search,0,10,0,0,;,3598,31
undefined,06.asc,F009.png,search,0,53,0,0,timeout,15003,32
undefined,06.asc,S026.png,search,0,50,1,0,timeout,15005,33
undefined,06.asc,S005.png,search,0,51,0,0,timeout,15005,34
undefined,06.asc,F048.png,search,0,48,1,0,timeout,15004,35
undefined,06.asc,S030.png,search,0,56,2,0,timeout,15003,36
undefined,06.asc,S023.png,search,0,45,1,0,timeout,15004,37
undefined,06.asc,S017.png,search,0,40,7,0,timeout,15005,38
undefined,06.asc,F005.png,search,0,50,1,0,timeout,15005,39
undefined,06.asc,F035.png,search,0,50,1,0,timeout,15004,40
undefined,06.asc,F002.png,search,0,53,1,0,timeout,15004,41
undefined,06.asc,S035.png,search,0,48,2,0,timeout,15004,42
undefined,06.asc,S020.png,search,0,48,0,0,timeout,15005,43
undefined,06.asc,F046.png,search,0,46,0,0,timeout,15006,44
undefined,06.asc,F032.png,search,0,52,1,0,timeout,15005,45
undefined,06.asc,F030.png,search,0,13,1,0,;,8918,46
undefined,06.asc,F029.png,search,0,46,1,0,timeout,15004,47
undefined,06.asc,F001.png,search,0,48,0,0,timeout,15004,48
undefined,06.asc,F021.png,search,0,14,0,0,;,5413,49
undefined,06.asc,S013.png,search,0,51,1,0,timeout,15005,50
undefined,06.asc,S041.png,search,0,47,1,0,timeout,15004,51
undefined,06.asc,S002.png,search,0,32,0,0,w,9453,52
undefined,06.asc,S036.png,search,0,6,0,0,w,2694,53
undefined,06.asc,F010.png,search,0,51,0,0,timeout,15005,54
undefined,06.asc,F014.png,search,0,50,2,0,timeout,15004,55
undefined,06.asc,F013.png,search,0,52,0,0,timeout,15004,56
undefined,06.asc,F042.png,search,0,48,1,0,timeout,15005,57
undefined,06.asc,S040.png,search,0,39,4,0,timeout,15004,58
undefined,06.asc,F024.png,search,0,48,2,0,timeout,15004,59
undefined,06.asc,S004.png,search,0,51,0,0,timeout,15006,60
undefined,06.asc,S003.png,search,0,47,1,0,timeout,15004,61
undefined,06.asc,F044.png,search,0,48,1,0,timeout,15003,62
undefined,06.asc,S024.png,search,0,49,0,0,timeout,15004,63
undefined,06.asc,F006.png,search,0,49,0,0,timeout,15004,64
undefined,06.asc,S047.png,search,0,27,0,0,w,8522,65
undefined,06.asc,S025.png,search,0,45,0,0,timeout,15005,66
undefined,06.asc,S033.png,search,0,37,0,0,w,12246,67
undefined,06.asc,S048.png,search,0,49,0,0,timeout,15004,68
undefined,06.asc,S032.png,search,0,53,0,0,timeout,15004,69
undefined,06.asc,F008.png,search,0,48,1,0,timeout,15005,70
undefined,06.asc,S039.png,search,0,47,1,0,timeout,15005,71
undefined,06.asc,F025.png,search,0,18,1,0,w,5510,72
undefined,06.asc,S016.png,search,0,48,2,0,timeout,15005,73
undefined,06.asc,S045.png,search,0,52,0,0,timeout,15004,74
undefined,06.asc,F007.png,search,0,52,0,0,timeout,15003,75
undefined,06.asc,S029.png,search,0,52,0,0,timeout,15004,76
undefined,06.asc,S043.png,search,0,50,1,0,timeout,15004,77
undefined,06.asc,F049.png,search,0,53,1,0,timeout,15004,78
undefined,06.asc,F018.png,search,0,49,1,0,timeout,15005,79
undefined,06.asc,S022.png,search,0,50,2,0,timeout,15004,80
undefined,06.asc,F033.png,search,0,26,0,0,;,8006,81
undefined,06.asc,F039.png,search,0,49,1,0,timeout,15005,82
undefined,06.asc,S014.png,search,0,52,1,0,timeout,15004,83
undefined,06.asc,F045.png,search,0,49,0,0,timeout,15004,84
undefined,06.asc,F043.png,search,0,14,1,0,w,8816,85
undefined,06.asc,S046.png,search,0,49,1,0,timeout,15004,86
undefined,06.asc,S028.png,search,0,52,0,0,timeout,15004,87
undefined,06.asc,S031.png,search,0,46,1,0,timeout,15006,88
undefined,06.asc,F036.png,search,0,53,2,0,timeout,15004,89
undefined,06.asc,F040.png,search,0,53,0,0,timeout,15005,90
undefined,06.asc,F034.png,search,0,48,0,0,timeout,15004,91
undefined,06.asc,F004.png,search,0,3,0,0,w,1390,92
undefined,06.asc,F041.png,search,0,47,1,0,timeout,15005,93
undefined,06.asc,S008.png,search,0,52,0,0,timeout,15004,94
undefined,06.asc,F031.png,search,0,47,2,0,timeout,15004,95
undefined,06.asc,S001.png,search,0,53,1,0,timeout,15004,96
undefined,06.asc,F019.png,search,0,53,0,0,timeout,15004,97
undefined,06.asc,F020.png,search,0,35,0,0,;,10919,98
undefined,06.asc,S037.png,search,0,48,2,0,timeout,15004,99
undefined,06.asc,F011.png,search,0,52,0,0,timeout,15006,100
undefined,06.asc,S049.png,search,0,15,0,0,;,5030,101
undefined,09.asc,P002.png,search,0,21,0,0,w,8038,0
undefined,09.asc,P001.png,search,0,37,0,0,timeout,15005,1
undefined,09.asc,F001.png,search,0,54,0,0,timeout,15005,2
undefined,09.asc,S040.png,search,0,55,0,0,timeout,15004,3
undefined,09.asc,S008.png,search,0,61,0,0,timeout,15004,4
undefined,09.asc,F020.png,search,0,20,0,0,;,6557,5
undefined,09.asc,S031.png,search,0,54,0,0,timeout,15005,6
undefined,09.asc,F016.png,search,0,42,0,0,w,14655,7
undefined,09.asc,F040.png,search,0,55,0,0,timeout,15003,8
undefined,09.asc,F037.png,search,0,58,0,0,timeout,15004,9
undefined,09.asc,F038.png,search,0,56,0,0,timeout,15004,10
undefined,09.asc,S049.png,search,0,28,0,0,;,7806,11
undefined,09.asc,S010.png,search,0,53,0,0,timeout,15003,12
undefined,09.asc,F023.png,search,0,49,0,0,timeout,15005,13
undefined,09.asc,S012.png,search,0,51,0,0,timeout,15005,14
undefined,09.asc,S035.png,search,0,24,0,0,;,7681,15
undefined,09.asc,S043.png,search,0,52,0,0,timeout,15004,16
undefined,09.asc,F049.png,search,0,55,0,0,timeout,15004,17
undefined,09.asc,F027.png,search,0,50,0,0,timeout,15003,18
undefined,09.asc,S044.png,search,0,27,0,0,;,8253,19
undefined,09.asc,F013.png,search,0,55,0,0,timeout,15005,20
undefined,09.asc,F026.png,search,0,50,0,0,timeout,15004,21
undefined,09.asc,S042.png,search,0,26,0,0,w,7911,22
undefined,09.asc,F046.png,search,0,53,0,0,timeout,15004,23
undefined,09.asc,S000.png,search,0,30,0,0,w,8933,24
undefined,09.asc,S013.png,search,0,50,0,0,timeout,15003,25
undefined,09.asc,S047.png,search,0,38,0,0,w,11534,26
undefined,09.asc,S017.png,search,0,52,0,0,timeout,15004,27
undefined,09.asc,S009.png,search,0,52,0,0,timeout,15004,28
undefined,09.asc,F032.png,search,0,54,0,0,timeout,15004,29
undefined,09.asc,S026.png,search,0,56,0,0,timeout,15004,30
undefined,09.asc,F011.png,search,0,56,0,0,timeout,15004,31
undefined,09.asc,F041.png,search,0,47,0,0,timeout,15004,32
undefined,09.asc,S041.png,search,0,55,0,0,timeout,15005,33
undefined,09.asc,S018.png,search,0,54,0,0,timeout,15004,34
undefined,09.asc,F034.png,search,0,30,0,0,;,9142,35
undefined,09.asc,F012.png,search,0,56,0,0,timeout,15004,36
undefined,09.asc,F025.png,search,0,27,0,0,w,8029,37
undefined,09.asc,F043.png,search,0,59,0,0,timeout,15004,38
undefined,09.asc,F024.png,search,0,49,0,0,timeout,15004,39
undefined,09.asc,F022.png,search,0,60,2,0,timeout,15005,40
undefined,09.asc,S011.png,search,0,50,0,0,timeout,15004,41
undefined,09.asc,S005.png,search,0,48,0,0,timeout,15005,42
undefined,09.asc,F005.png,search,0,50,0,0,timeout,15004,43
undefined,09.asc,S046.png,search,0,50,0,0,timeout,15004,44
undefined,09.asc,F000.png,search,0,52,0,0,timeout,15004,45
undefined,09.asc,F036.png,search,0,55,0,0,timeout,15003,46
undefined,09.asc,F002.png,search,0,16,0,0,;,4766,47
undefined,09.asc,S028.png,search,0,51,0,0,timeout,15004,48
undefined,09.asc,F042.png,search,0,62,0,0,timeout,15004,49
undefined,09.asc,S039.png,search,0,58,0,0,timeout,15003,50
undefined,09.asc,F021.png,search,0,5,0,0,;,2302,51
undefined,09.asc,F014.png,search,0,48,0,0,timeout,15005,52
undefined,09.asc,F035.png,search,0,55,0,0,timeout,15004,53
undefined,09.asc,S016.png,search,0,51,0,0,timeout,15004,54
undefined,09.asc,S027.png,search,0,50,0,0,timeout,15004,55
undefined,09.asc,F030.png,search,0,2,0,0,;,1850,56
undefined,09.asc,S001.png,search,0,52,0,0,timeout,15004,57
undefined,09.asc,F028.png,search,0,51,0,0,timeout,15004,58
undefined,09.asc,F045.png,search,0,53,0,0,timeout,15004,59
undefined,09.asc,S029.png,search,0,58,0,0,timeout,15005,60
undefined,09.asc,S022.png,search,0,52,0,0,timeout,15004,61
undefined,09.asc,F003.png,search,0,54,0,0,timeout,15004,62
undefined,09.asc,S024.png,search,0,50,0,0,timeout,15004,63
undefined,09.asc,S023.png,search,0,48,0,0,timeout,15004,64
undefined,09.asc,S034.png,search,0,54,0,0,timeout,15004,65
undefined,09.asc,F007.png,search,0,54,0,0,timeout,15005,66
undefined,09.asc,F006.png,search,0,54,0,0,timeout,15005,67
undefined,09.asc,F019.png,search,0,45,0,0,timeout,15004,68
undefined,09.asc,F008.png,search,0,44,0,0,timeout,15004,69
undefined,09.asc,F010.png,search,0,52,0,0,timeout,15004,70
undefined,09.asc,S045.png,search,0,49,0,0,timeout,15004,71
undefined,09.asc,S006.png,search,0,53,0,0,timeout,15004,72
undefined,09.asc,S048.png,search,0,59,0,0,timeout,15004,73
undefined,09.asc,S036.png,search,0,5,0,0,w,2318,74
undefined,09.asc,S004.png,search,0,38,0,0,;,12861,75
undefined,09.asc,F039.png,search,0,32,0,0,w,10422,76
undefined,09.asc,F009.png,search,0,26,0,0,w,7855,77
undefined,09.asc,F044.png,search,0,45,0,0,timeout,15004,78
undefined,09.asc,F004.png,search,0,3,0,0,w,2198,79
undefined,09.asc,S007.png,search,0,43,0,0,timeout,15005,80
undefined,09.asc,S038.png,search,0,54,0,0,timeout,15005,81
undefined,09.asc,S033.png,search,0,51,0,0,timeout,15005,82
undefined,09.asc,S020.png,search,0,48,0,0,timeout,15003,83
undefined,09.asc,F018.png,search,0,11,0,0,;,3477,84
undefined,09.asc,S025.png,search,0,53,0,0,timeout,15004,85
undefined,09.asc,S019.png,search,0,53,0,0,timeout,15005,86
undefined,09.asc,S002.png,search,0,3,0,0,w,1502,87
undefined,09.asc,S021.png,search,0,52,0,0,timeout,15004,88
undefined,09.asc,F048.png,search,0,54,0,0,timeout,15004,89
undefined,09.asc,F033.png,search,0,52,0,0,timeout,15004,90
undefined,09.asc,S003.png,search,0,50,0,0,timeout,15004,91
undefined,09.asc,F015.png,search,0,54,0,0,timeout,15004,92
undefined,09.asc,F017.png,search,0,47,0,0,timeout,15004,93
undefined,09.asc,S030.png,search,0,42,0,0,;,12318,94
undefined,09.asc,F029.png,search,0,49,0,0,timeout,15004,95
undefined,09.asc,F047.png,search,0,54,0,0,timeout,15005,96
undefined,09.asc,S032.png,search,0,54,0,0,timeout,15004,97
undefined,09.asc,S014.png,search,0,56,0,0,timeout,15004,98
undefined,09.asc,S015.png,search,0,53,0,0,timeout,15004,99
undefined,09.asc,F031.png,search,0,54,0,0,timeout,15004,100
undefined,09.asc,S037.png,search,0,53,0,0,timeout,15004,101
undefined,08.asc,P002.png,memory,0,48,1,0,timeout,15005,0
undefined,08.asc,P001.png,memory,0,49,1,0,timeout,15005,1
undefined,08.asc,S015.png,memory,0,45,0,0,timeout,15004,2
undefined,08.asc,S017.png,memory,0,42,0,0,timeout,15004,3
undefined,08.asc,S036.png,memory,0,50,0,0,timeout,15004,4
undefined,08.asc,S000.png,memory,0,47,2,0,timeout,15004,5
undefined,08.asc,S021.png,memory,0,48,0,0,timeout,15004,6
undefined,08.asc,S003.png,memory,0,47,0,0,timeout,15004,7
undefined,08.asc,F026.png,memory,0,49,0,0,timeout,15004,8
undefined,08.asc,F035.png,memory,0,40,0,0,timeout,15004,9
undefined,08.asc,S048.png,memory,0,52,0,0,timeout,15004,10
undefined,08.asc,F019.png,memory,0,49,0,0,timeout,15004,11
undefined,08.asc,F000.png,memory,0,42,0,0,timeout,15004,12
undefined,08.asc,F021.png,memory,0,43,1,0,timeout,15004,13
undefined,08.asc,S046.png,memory,0,47,0,0,timeout,15003,14
undefined,08.asc,F032.png,memory,0,45,0,0,timeout,15004,15
undefined,08.asc,S032.png,memory,0,51,0,0,timeout,15004,16
undefined,08.asc,F037.png,memory,0,29,0,0,timeout,15004,17
undefined,08.asc,S008.png,memory,0,45,0,0,timeout,15004,18
undefined,08.asc,F004.png,memory,0,44,0,0,timeout,15005,19
undefined,08.asc,S034.png,memory,0,41,0,0,timeout,15004,20
undefined,08.asc,F023.png,memory,0,43,0,0,timeout,15004,21
undefined,08.asc,S038.png,memory,0,40,0,0,timeout,15004,22
undefined,08.asc,S004.png,memory,0,41,0,0,timeout,15004,23
undefined,08.asc,F006.png,memory,0,38,0,0,timeout,15004,24
undefined,08.asc,F030.png,memory,0,35,2,0,timeout,15006,25
undefined,08.asc,S029.png,memory,0,50,0,0,timeout,15004,26
undefined,08.asc,S020.png,memory,0,41,0,0,timeout,15004,27
undefined,08.asc,F027.png,memory,0,44,0,0,timeout,15004,28
undefined,08.asc,S033.png,memory,0,44,0,0,timeout,15004,29
undefined,08.asc,F042.png,memory,0,42,0,0,timeout,15004,30
undefined,08.asc,S043.png,memory,0,45,0,0,timeout,15004,31
undefined,08.asc,S016.png,memory,0,44,0,0,timeout,15004,32
undefined,08.asc,F048.png,memory,0,35,0,0,timeout,15005,33
undefined,08.asc,S037.png,memory,0,36,0,0,timeout,15005,34
undefined,08.asc,F041.png,memory,0,49,0,0,timeout,15004,35
undefined,08.asc,F012.png,memory,0,50,0,0,timeout,15004,36
undefined,08.asc,S026.png,memory,0,50,0,0,timeout,15004,37
undefined,08.asc,F044.png,memory,0,43,0,0,timeout,15004,38
undefined,08.asc,S047.png,memory,0,40,0,0,timeout,15004,39
undefined,08.asc,F029.png,memory,0,44,0,0,timeout,15004,40
undefined,08.asc,S024.png,memory,0,33,0,0,timeout,15003,41
undefined,08.asc,F002.png,memory,0,50,0,0,timeout,15004,42
undefined,08.asc,S010.png,memory,0,42,0,0,timeout,15004,43
undefined,08.asc,S001.png,memory,0,35,0,0,timeout,15004,44
undefined,08.asc,F013.png,memory,0,45,0,0,timeout,15004,45
undefined,08.asc,F024.png,memory,0,44,0,0,timeout,15004,46
undefined,08.asc,F022.png,memory,0,45,0,0,timeout,15004,47
undefined,08.asc,F011.png,memory,0,43,0,0,timeout,15004,48
undefined,08.asc,F025.png,memory,0,41,0,0,timeout,15005,49
undefined,08.asc,S045.png,memory,0,48,0,0,timeout,15004,50
undefined,08.asc,S006.png,memory,0,44,0,0,timeout,15004,51
undefined,08.asc,F036.png,memory,0,45,0,0,timeout,15005,52
undefined,08.asc,F043.png,memory,0,58,0,0,timeout,15004,53
undefined,08.asc,S027.png,memory,0,43,0,0,timeout,15004,54
undefined,08.asc,S041.png,memory,0,42,0,0,timeout,15004,55
undefined,08.asc,F049.png,memory,0,47,0,0,timeout,15004,56
undefined,08.asc,S011.png,memory,0,32,0,0,timeout,15004,57
undefined,08.asc,F031.png,memory,0,44,0,0,timeout,15004,58
undefined,08.asc,F017.png,memory,0,43,0,0,timeout,15004,59
undefined,08.asc,F038.png,memory,0,46,0,0,timeout,15004,60
undefined,08.asc,F014.png,memory,0,47,0,0,timeout,15004,61
undefined,08.asc,F003.png,memory,0,35,0,0,timeout,15004,62
undefined,08.asc,S049.png,memory,0,43,0,0,timeout,15004,63
undefined,08.asc,S023.png,memory,0,40,0,0,timeout,15004,64
undefined,08.asc,S035.png,memory,0,47,0,0,timeout,15004,65
undefined,08.asc,S040.png,memory,0,43,0,0,timeout,15003,66
undefined,08.asc,F007.png,memory,0,48,0,0,timeout,15004,67
undefined,08.asc,F028.png,memory,0,47,0,0,timeout,15004,68
undefined,08.asc,F005.png,memory,0,48,0,0,timeout,15004,69
undefined,08.asc,S013.png,memory,0,37,1,0,timeout,15004,70
undefined,08.asc,S042.png,memory,0,47,0,0,timeout,15004,71
undefined,08.asc,S039.png,memory,0,44,0,0,timeout,15004,72
undefined,08.asc,F033.png,memory,0,35,1,0,timeout,15005,73
undefined,08.asc,F016.png,memory,0,41,0,0,timeout,15004,74
undefined,08.asc,S007.png,memory,0,48,2,0,timeout,15004,75
undefined,08.asc,S044.png,memory,0,42,0,0,timeout,15004,76
undefined,08.asc,S030.png,memory,0,44,0,0,timeout,15004,77
undefined,08.asc,S019.png,memory,0,47,0,0,timeout,15004,78
undefined,08.asc,F018.png,memory,0,44,1,0,timeout,15004,79
undefined,08.asc,S002.png,memory,0,31,0,0,timeout,15006,80
undefined,08.asc,F009.png,memory,0,45,0,0,timeout,15004,81
undefined,08.asc,S031.png,memory,0,34,0,0,timeout,15005,82
undefined,08.asc,S028.png,memory,0,40,0,0,timeout,15004,83
undefined,08.asc,F015.png,memory,0,45,0,0,timeout,15005,84
undefined,08.asc,F047.png,memory,0,40,0,0,timeout,15004,85
undefined,08.asc,F001.png,memory,0,44,0,0,timeout,15005,86
undefined,08.asc,F045.png,memory,0,43,0,0,timeout,15004,87
undefined,08.asc,F010.png,memory,0,41,0,0,timeout,15004,88
undefined,08.asc,S022.png,memory,0,44,0,0,timeout,15004,89
undefined,08.asc,F040.png,memory,0,38,0,0,timeout,15004,90
undefined,08.asc,S014.png,memory,0,48,1,0,timeout,15003,91
undefined,08.asc,F039.png,memory,0,47,0,0,timeout,15004,92
undefined,08.asc,F046.png,memory,0,36,2,0,timeout,15005,93
undefined,08.asc,F008.png,memory,0,33,0,0,timeout,15004,94
undefined,08.asc,S012.png,memory,0,49,1,0,timeout,15004,95
undefined,08.asc,F034.png,memory,0,46,0,0,timeout,15004,96
undefined,08.asc,S018.png,memory,0,54,0,0,timeout,15004,97
undefined,08.asc,F020.png,memory,0,38,0,0,timeout,15004,98
undefined,08.asc,S005.png,memory,0,45,0,0,timeout,15004,99
undefined,08.asc,S025.png,memory,0,42,0,0,timeout,15004,100
undefined,08.asc,S009.png,memory,0,49,0,0,timeout,15005,101
undefined,14.asc,P002.png,memory,0,49,8,0,timeout,15005,0
undefined,14.asc,P001.png,memory,0,45,9,0,timeout,15004,1
undefined,14.asc,S038.png,memory,0,36,6,0,timeout,15004,2
undefined,14.asc,F001.png,memory,0,41,3,0,timeout,15004,3
undefined,14.asc,S033.png,memory,0,34,5,0,timeout,15005,4
undefined,14.asc,F008.png,memory,0,36,3,0,timeout,15004,5
undefined,14.asc,S025.png,memory,0,47,5,0,timeout,15004,6
undefined,14.asc,F021.png,memory,0,36,4,0,timeout,15005,7
undefined,14.asc,F049.png,memory,0,32,4,0,timeout,15003,8
undefined,14.asc,S008.png,memory,0,36,6,0,timeout,15004,9
undefined,14.asc,F017.png,memory,0,43,5,0,timeout,15004,10
undefined,14.asc,S028.png,memory,0,35,4,0,timeout,15004,11
undefined,14.asc,F012.png,memory,0,39,5,0,timeout,15004,12
undefined,14.asc,F016.png,memory,0,45,5,0,timeout,15005,13
undefined,14.asc,S021.png,memory,0,34,3,0,timeout,15004,14
undefined,14.asc,S003.png,memory,0,34,4,0,timeout,15004,15
undefined,14.asc,F003.png,memory,0,46,6,0,timeout,15004,16
undefined,14.asc,F005.png,memory,0,41,5,0,timeout,15005,17
undefined,14.asc,S019.png,memory,0,39,5,0,timeout,15004,18
undefined,14.asc,F042.png,memory,0,36,5,0,timeout,15004,19
undefined,14.asc,S010.png,memory,0,42,4,0,timeout,15004,20
undefined,14.asc,S043.png,memory,0,40,4,0,timeout,15004,21
undefined,14.asc,S004.png,memory,0,37,3,0,timeout,15005,22
undefined,14.asc,S022.png,memory,0,37,8,0,timeout,15005,23
undefined,14.asc,S016.png,memory,0,40,6,0,timeout,15004,24
undefined,14.asc,F019.png,memory,0,33,3,0,timeout,15004,25
undefined,14.asc,F046.png,memory,0,36,4,0,timeout,15003,26
undefined,14.asc,S011.png,memory,0,37,5,0,timeout,15004,27
undefined,14.asc,F015.png,memory,0,32,5,0,timeout,15003,28
undefined,14.asc,F022.png,memory,0,27,5,0,timeout,15004,29
undefined,14.asc,F020.png,memory,0,39,5,0,timeout,15005,30
undefined,14.asc,S020.png,memory,0,38,6,0,timeout,15004,31
undefined,14.asc,F024.png,memory,0,32,3,0,timeout,15004,32
undefined,14.asc,S001.png,memory,0,39,4,0,timeout,15004,33
undefined,14.asc,S026.png,memory,0,44,11,0,timeout,15003,34
undefined,14.asc,S027.png,memory,0,38,3,0,timeout,15004,35
undefined,14.asc,F036.png,memory,0,40,4,0,timeout,15004,36
undefined,14.asc,S040.png,memory,0,35,4,0,timeout,15004,37
undefined,14.asc,S018.png,memory,0,45,4,0,timeout,15004,38
undefined,14.asc,S014.png,memory,0,37,5,0,timeout,15004,39
undefined,14.asc,F023.png,memory,0,30,7,0,timeout,15005,40
undefined,14.asc,S029.png,memory,0,36,4,0,timeout,15005,41
undefined,14.asc,S030.png,memory,0,42,5,0,timeout,15003,42
undefined,14.asc,S042.png,memory,0,39,5,0,timeout,15004,43
undefined,14.asc,S006.png,memory,0,38,6,0,timeout,15004,44
undefined,14.asc,F002.png,memory,0,36,6,0,timeout,15004,45
undefined,14.asc,S013.png,memory,0,36,4,0,timeout,15004,46
undefined,14.asc,S039.png,memory,0,40,6,0,timeout,15004,47
undefined,14.asc,F007.png,memory,0,34,6,0,timeout,15005,48
undefined,14.asc,S045.png,memory,0,39,5,0,timeout,15004,49
undefined,14.asc,S012.png,memory,0,44,5,0,timeout,15004,50
undefined,14.asc,F030.png,memory,0,33,5,0,timeout,15003,51
undefined,14.asc,F013.png,memory,0,36,4,0,timeout,15004,52
undefined,14.asc,S002.png,memory,0,40,4,0,timeout,15004,53
undefined,14.asc,S032.png,memory,0,39,4,0,timeout,15004,54
undefined,14.asc,F033.png,memory,0,45,8,0,timeout,15004,55
undefined,14.asc,S024.png,memory,0,35,7,0,timeout,15005,56
undefined,14.asc,F010.png,memory,0,41,6,0,timeout,15004,57
undefined,14.asc,F045.png,memory,0,44,4,0,timeout,15004,58
undefined,14.asc,S015.png,memory,0,37,7,0,timeout,15005,59
undefined,14.asc,F028.png,memory,0,46,8,0,timeout,15004,60
undefined,14.asc,F048.png,memory,0,32,4,0,timeout,15004,61
undefined,14.asc,S005.png,memory,0,47,6,0,timeout,15004,62
undefined,14.asc,F040.png,memory,0,37,4,0,timeout,15004,63
undefined,14.asc,F039.png,memory,0,33,6,0,timeout,15004,64
undefined,14.asc,F029.png,memory,0,35,6,0,timeout,15003,65
undefined,14.asc,S000.png,memory,0,44,4,0,timeout,15003,66
undefined,14.asc,F026.png,memory,0,37,6,0,timeout,15004,67
undefined,14.asc,S048.png,memory,0,36,7,0,timeout,15003,68
undefined,14.asc,S007.png,memory,0,33,8,0,timeout,15004,69
undefined,14.asc,S035.png,memory,0,43,6,0,timeout,15004,70
undefined,14.asc,F038.png,memory,0,35,8,0,timeout,15004,71
undefined,14.asc,F025.png,memory,0,40,5,0,timeout,15005,72
undefined,14.asc,F035.png,memory,0,42,7,0,timeout,15004,73
undefined,14.asc,S049.png,memory,0,39,4,0,timeout,15004,74
undefined,14.asc,F009.png,memory,0,31,4,0,timeout,15004,75
undefined,14.asc,F014.png,memory,0,33,4,0,timeout,15004,76
undefined,14.asc,S037.png,memory,0,34,6,0,timeout,15005,77
undefined,14.asc,F041.png,memory,0,40,7,0,timeout,15003,78
undefined,14.asc,S041.png,memory,0,37,5,0,timeout,15005,79
undefined,14.asc,F037.png,memory,0,40,9,0,timeout,15004,80
undefined,14.asc,S034.png,memory,0,38,5,0,timeout,15005,81
undefined,14.asc,F027.png,memory,0,37,5,0,timeout,15003,82
undefined,14.asc,S036.png,memory,0,45,3,0,timeout,15004,83
undefined,14.asc,F011.png,memory,0,42,5,0,timeout,15005,84
undefined,14.asc,F031.png,memory,0,38,7,0,timeout,15004,85
undefined,14.asc,F032.png,memory,0,42,5,0,timeout,15004,86
undefined,14.asc,F034.png,memory,0,27,7,0,timeout,15004,87
undefined,14.asc,S047.png,memory,0,34,6,0,timeout,15005,88
undefined,14.asc,S044.png,memory,0,32,5,0,timeout,15003,89
undefined,14.asc,F000.png,memory,0,34,5,0,timeout,15004,90
undefined,14.asc,F006.png,memory,0,28,6,0,timeout,15005,91
undefined,14.asc,F004.png,memory,0,35,4,0,timeout,15005,92
undefined,14.asc,S031.png,memory,0,33,5,0,timeout,15004,93
undefined,14.asc,F047.png,memory,0,41,4,0,timeout,15004,94
undefined,14.asc,F018.png,memory,0,38,6,0,timeout,15003,95
undefined,14.asc,F044.png,memory,0,38,7,0,timeout,15004,96
undefined,14.asc,S017.png,memory,0,38,6,0,timeout,15004,97
undefined,14.asc,S009.png,memory,0,42,5,0,timeout,15005,98
undefined,14.asc,S046.png,memory,0,34,6,0,timeout,15004,99
undefined,14.asc,F043.png,memory,0,32,8,0,timeout,15003,100
undefined,14.asc,S023.png,memory,0,47,6,0,timeout,15005,101
undefined,01.asc,P002.png,free,0,30,0,0,timeout,15005,0
undefined,01.asc,P001.png,free,0,32,3,0,timeout,15005,1
undefined,01.asc,F024.png,free,0,31,2,0,timeout,15004,2
undefined,01.asc,F030.png,free,0,39,1,0,timeout,15004,3
undefined,01.asc,F028.png,free,0,40,1,0,timeout,15004,4
undefined,01.asc,S000.png,free,0,35,1,0,timeout,15004,5
undefined,01.asc,S018.png,free,0,44,1,0,timeout,15004,6
undefined,01.asc,S028.png,free,0,36,3,0,timeout,15004,7
undefined,01.asc,S037.png,free,0,32,1,0,timeout,15004,8
undefined,01.asc,S029.png,free,0,46,1,0,timeout,15005,9
undefined,01.asc,F032.png,free,0,39,3,0,timeout,15005,10
undefined,01.asc,F013.png,free,0,34,1,0,timeout,15004,11
undefined,01.asc,S047.png,free,0,32,1,0,timeout,15004,12
undefined,01.asc,F021.png,free,0,32,3,0,timeout,15004,13
undefined,01.asc,S002.png,free,0,40,1,0,timeout,15004,14
undefined,01.asc,S027.png,free,0,39,4,0,timeout,15003,15
undefined,01.asc,F022.png,free,0,36,4,0,timeout,15004,16
undefined,01.asc,S013.png,free,0,34,1,0,timeout,15004,17
undefined,01.asc,S039.png,free,0,38,3,0,timeout,15005,18
undefined,01.asc,S025.png,free,0,43,5,0,timeout,15004,19
undefined,01.asc,F003.png,free,0,35,5,0,timeout,15004,20
undefined,01.asc,S046.png,free,0,35,5,0,timeout,15003,21
undefined,01.asc,F002.png,free,0,44,2,0,timeout,15005,22
undefined,01.asc,S016.png,free,0,31,9,0,timeout,15005,23
undefined,01.asc,S001.png,free,0,43,3,0,timeout,15004,24
undefined,01.asc,S048.png,free,0,42,7,0,timeout,15004,25
undefined,01.asc,S041.png,free,0,33,3,0,timeout,15004,26
undefined,01.asc,S026.png,free,0,41,3,0,timeout,15004,27
undefined,01.asc,S003.png,free,0,35,4,0,timeout,15005,28
undefined,01.asc,F010.png,free,0,38,6,0,timeout,15004,29
undefined,01.asc,F049.png,free,0,44,2,0,timeout,15005,30
undefined,01.asc,F044.png,free,0,34,6,0,timeout,15005,31
undefined,01.asc,S011.png,free,0,31,2,0,timeout,15004,32
undefined,01.asc,F039.png,free,0,46,5,0,timeout,15005,33
undefined,01.asc,S019.png,free,0,30,1,0,timeout,15004,34
undefined,01.asc,F045.png,free,0,41,3,0,timeout,15004,35
undefined,01.asc,F005.png,free,0,41,3,0,timeout,15004,36
undefined,01.asc,S008.png,free,0,45,1,0,timeout,15005,37
undefined,01.asc,S040.png,free,0,26,5,0,timeout,15004,38
undefined,01.asc,S043.png,free,0,47,2,0,timeout,15004,39
undefined,01.asc,S042.png,free,0,32,4,0,timeout,15004,40
undefined,01.asc,F019.png,free,0,39,6,0,timeout,15005,41
undefined,01.asc,F011.png,free,0,48,4,0,timeout,15004,42
undefined,01.asc,S009.png,free,0,45,4,0,timeout,15005,43
undefined,01.asc,F009.png,free,0,45,4,0,timeout,15004,44
undefined,01.asc,S005.png,free,0,47,6,0,timeout,15006,45
undefined,01.asc,S021.png,free,0,35,7,0,timeout,15004,46
undefined,01.asc,F033.png,free,0,41,8,0,timeout,15004,47
undefined,01.asc,F015.png,free,0,44,8,0,timeout,15004,48
undefined,01.asc,S014.png,free,0,44,6,0,timeout,15005,49
undefined,01.asc,F026.png,free,0,45,4,0,timeout,15005,50
undefined,01.asc,F047.png,free,0,37,6,0,timeout,15005,51
undefined,01.asc,F017.png,free,0,30,3,0,timeout,15003,52
undefined,01.asc,F043.png,free,0,37,8,0,timeout,15004,53
undefined,01.asc,F046.png,free,0,41,4,0,timeout,15005,54
undefined,01.asc,F004.png,free,0,37,6,0,timeout,15004,55
undefined,01.asc,F000.png,free,0,45,6,0,timeout,15005,56
undefined,01.asc,F016.png,free,0,38,4,0,timeout,15004,57
undefined,01.asc,S006.png,free,0,33,6,0,timeout,15004,58
undefined,01.asc,S023.png,free,0,35,5,0,timeout,15005,59
undefined,01.asc,S031.png,free,0,35,9,0,timeout,15004,60
undefined,01.asc,S015.png,free,0,41,4,0,timeout,15003,61
undefined,01.asc,S032.png,free,0,34,5,0,timeout,15003,62
undefined,01.asc,S036.png,free,0,34,7,0,timeout,15004,63
undefined,01.asc,F035.png,free,0,43,9,0,timeout,15004,64
undefined,01.asc,F018.png,free,0,44,10,0,timeout,15004,65
undefined,01.asc,S007.png,free,0,45,11,0,timeout,15004,66
undefined,01.asc,S004.png,free,0,35,7,0,timeout,15003,67
undefined,01.asc,F007.png,free,0,31,8,0,timeout,15004,68
undefined,01.asc,S030.png,free,0,47,6,0,timeout,15004,69
undefined,01.asc,S045.png,free,0,40,6,0,timeout,15004,70
undefined,01.asc,F012.png,free,0,44,10,0,timeout,15004,71
undefined,01.asc,F034.png,free,0,41,11,0,timeout,15004,72
undefined,01.asc,F023.png,free,0,36,13,0,timeout,15005,73
undefined,01.asc,S035.png,free,0,33,8,0,timeout,15005,74
undefined,01.asc,F014.png,free,0,34,8,0,timeout,15004,75
undefined,01.asc,S044.png,free,0,36,8,0,timeout,15004,76
undefined,01.asc,S024.png,free,0,31,8,0,timeout,15005,77
undefined,01.asc,F001.png,free,0,40,9,0,timeout,15004,78
undefined,01.asc,S038.png,free,0,41,11,0,timeout,15004,79
undefined,01.asc,S017.png,free,0,30,9,0,timeout,15005,80
undefined,01.asc,S022.png,free,0,37,9,0,timeout,15004,81
undefined,01.asc,F006.png,free,0,41,7,0,timeout,15004,82
undefined,01.asc,S033.png,free,0,25,11,0,timeout,15005,83
undefined,01.asc,F036.png,free,0,33,11,0,timeout,15004,84
undefined,01.asc,S012.png,free,0,36,11,0,timeout,15004,85
undefined,01.asc,F025.png,free,0,40,8,0,timeout,15004,86
undefined,01.asc,F041.png,free,0,41,9,0,timeout,15005,87
undefined,01.asc,F029.png,free,0,38,11,0,timeout,15004,88
undefined,01.asc,F038.png,free,0,45,9,0,timeout,15004,89
undefined,01.asc,F037.png,free,0,42,10,0,timeout,15005,90
undefined,01.asc,F027.png,free,0,44,8,0,timeout,15004,91
undefined,01.asc,F040.png,free,0,41,7,0,timeout,15004,92
undefined,01.asc,F031.png,free,0,34,11,0,timeout,15003,93
undefined,01.asc,S034.png,free,0,42,6,0,timeout,15005,94
undefined,01.asc,F008.png,free,0,29,4,0,timeout,15004,95
undefined,01.asc,S049.png,free,0,39,8,0,timeout,15004,96
undefined,01.asc,F042.png,free,0,41,10,0,timeout,15004,97
undefined,01.asc,S010.png,free,0,43,8,0,timeout,15004,98
undefined,01.asc,S020.png,free,0,33,10,0,timeout,15004,99
undefined,01.asc,F020.png,free,0,30,8,0,timeout,15004,100
undefined,01.asc,F048.png,free,0,35,9,0,timeout,15005,101
undefined,03.asc,P002.png,search,0,37,3,0,timeout,15004,0
undefined,03.asc,P001.png,search,0,36,4,0,timeout,15005,1
undefined,03.asc,F021.png,search,0,33,2,0,timeout,15005,2
undefined,03.asc,S012.png,search,0,45,3,0,timeout,15004,3
undefined,03.asc,S010.png,search,0,34,4,0,timeout,15004,4
undefined,03.asc,S043.png,search,0,46,2,0,timeout,15005,5
undefined,03.asc,S039.png,search,0,41,2,0,timeout,15004,6
undefined,03.asc,F015.png,search,0,41,2,0,timeout,15004,7
undefined,03.asc,F012.png,search,0,43,2,0,timeout,15004,8
undefined,03.asc,S029.png,search,0,33,3,0,timeout,15004,9
undefined,03.asc,F019.png,search,0,51,2,0,timeout,15004,10
undefined,03.asc,F026.png,search,0,45,3,0,timeout,15004,11
undefined,03.asc,S021.png,search,0,46,3,0,timeout,15005,12
undefined,03.asc,S007.png,search,0,41,2,0,timeout,15004,13
undefined,03.asc,F017.png,search,0,34,1,0,timeout,15004,14
undefined,03.asc,S033.png,search,0,44,3,0,timeout,15004,15
undefined,03.asc,S020.png,search,0,33,3,0,timeout,15004,16
undefined,03.asc,F022.png,search,0,46,2,0,timeout,15004,17
undefined,03.asc,F037.png,search,0,37,2,0,w,12437,18
undefined,03.asc,S016.png,search,0,36,2,0,timeout,15004,19
undefined,03.asc,F028.png,search,0,43,4,0,timeout,15004,20
undefined,03.asc,S025.png,search,0,42,4,0,timeout,15004,21
undefined,03.asc,S024.png,search,0,44,4,0,timeout,15005,22
undefined,03.asc,F016.png,search,0,32,3,0,w,14679,23
undefined,03.asc,S018.png,search,0,40,3,0,timeout,15005,24
undefined,03.asc,F047.png,search,0,27,2,0,;,11374,25
undefined,03.asc,S005.png,search,0,21,2,0,;,9389,26
undefined,03.asc,F018.png,search,0,48,3,0,timeout,15006,27
undefined,03.asc,F034.png,search,0,36,2,0,timeout,15004,28
undefined,03.asc,F031.png,search,0,43,2,0,timeout,15003,29
undefined,03.asc,F032.png,search,0,42,2,0,timeout,15004,30
undefined,03.asc,F000.png,search,0,42,3,0,timeout,15003,31
undefined,03.asc,S031.png,search,0,38,3,0,timeout,15004,32
undefined,03.asc,F049.png,search,0,49,3,0,timeout,15004,33
undefined,03.asc,S038.png,search,0,48,2,0,timeout,15005,34
undefined,03.asc,S000.png,search,0,38,1,0,timeout,15004,35
undefined,03.asc,F020.png,search,0,43,2,0,timeout,15005,36
undefined,03.asc,F007.png,search,0,46,2,0,timeout,15004,37
undefined,03.asc,S026.png,search,0,48,2,0,timeout,15004,38
undefined,03.asc,S001.png,search,0,45,2,0,timeout,15004,39
undefined,03.asc,F010.png,search,0,42,3,0,timeout,15004,40
undefined,03.asc,F027.png,search,0,45,3,0,timeout,15004,41
undefined,03.asc,F024.png,search,0,36,3,0,timeout,15005,42
undefined,03.asc,F041.png,search,0,17,1,0,w,6799,43
undefined,03.asc,S045.png,search,0,37,3,0,timeout,15003,44
undefined,03.asc,F006.png,search,0,46,4,0,timeout,15005,45
undefined,03.asc,S017.png,search,0,39,2,0,timeout,15004,46
undefined,03.asc,S019.png,search,0,41,3,0,timeout,15005,47
undefined,03.asc,F043.png,search,0,35,3,0,timeout,15004,48
undefined,03.asc,F013.png,search,0,45,2,0,timeout,15005,49
undefined,03.asc,S042.png,search,0,46,4,0,timeout,15004,50
undefined,03.asc,S048.png,search,0,42,2,0,timeout,15004,51
undefined,03.asc,F005.png,search,0,53,1,0,timeout,15004,52
undefined,03.asc,F036.png,search,0,47,2,0,timeout,15006,53
undefined,03.asc,S037.png,search,0,45,3,0,timeout,15004,54
undefined,03.asc,F008.png,search,0,42,2,0,timeout,15005,55
undefined,03.asc,S002.png,search,0,46,3,0,timeout,15004,56
undefined,03.asc,F040.png,search,0,43,2,0,timeout,15004,57
undefined,03.asc,F003.png,search,0,44,2,0,timeout,15004,58
undefined,03.asc,S006.png,search,0,43,2,0,timeout,15004,59
undefined,03.asc,F045.png,search,0,45,4,0,timeout,15004,60
undefined,03.asc,S008.png,search,0,46,2,0,timeout,15004,61
undefined,03.asc,F033.png,search,0,41,3,0,timeout,15004,62
undefined,03.asc,F035.png,search,0,45,2,0,timeout,15004,63
undefined,03.asc,F011.png,search,0,42,1,0,timeout,15004,64
undefined,03.asc,F014.png,search,0,38,2,0,timeout,15004,65
undefined,03.asc,F001.png,search,0,42,2,0,timeout,15004,66
undefined,03.asc,S014.png,search,0,42,2,0,timeout,15005,67
undefined,03.asc,F004.png,search,0,5,0,0,w,2597,68
undefined,03.asc,F002.png,search,0,14,1,0,;,5407,69
undefined,03.asc,S023.png,search,0,41,1,0,timeout,15004,70
undefined,03.asc,S034.png,search,0,45,2,0,timeout,15004,71
undefined,03.asc,F044.png,search,0,45,2,0,timeout,15004,72
undefined,03.asc,S015.png,search,0,42,2,0,timeout,15004,73
undefined,03.asc,S004.png,search,0,44,1,0,timeout,15005,74
undefined,03.asc,S049.png,search,0,21,0,0,;,7551,75
undefined,03.asc,S041.png,search,0,40,1,0,timeout,15004,76
undefined,03.asc,S013.png,search,0,36,2,0,timeout,15004,77
undefined,03.asc,F030.png,search,0,5,0,0,;,4438,78
undefined,03.asc,S003.png,search,0,39,2,0,timeout,15003,79
undefined,03.asc,S022.png,search,0,41,3,0,timeout,15006,80
undefined,03.asc,S047.png,search,0,13,1,0,w,6966,81
undefined,03.asc,S009.png,search,0,43,3,0,timeout,15004,82
undefined,03.asc,F048.png,search,0,34,3,0,timeout,15006,83
undefined,03.asc,F009.png,search,0,37,2,0,timeout,15006,84
undefined,03.asc,F039.png,search,0,28,1,0,w,10373,85
undefined,03.asc,S036.png,search,0,33,3,0,w,12149,86
undefined,03.asc,S032.png,search,0,41,2,0,timeout,15004,87
undefined,03.asc,S028.png,search,0,42,2,0,timeout,15004,88
undefined,03.asc,S027.png,search,0,39,2,0,;,13605,89
undefined,03.asc,S011.png,search,0,39,2,0,timeout,15004,90
undefined,03.asc,F038.png,search,0,44,2,0,timeout,15004,91
undefined,03.asc,S046.png,search,0,41,2,0,timeout,15005,92
undefined,03.asc,S035.png,search,0,35,2,0,timeout,15005,93
undefined,03.asc,S030.png,search,0,42,2,0,timeout,15004,94
undefined,03.asc,F046.png,search,0,41,2,0,timeout,15005,95
undefined,03.asc,S044.png,search,0,39,2,0,timeout,15004,96
undefined,03.asc,F025.png,search,0,10,1,0,w,3878,97
undefined,03.asc,F029.png,search,0,41,2,0,timeout,15005,98
undefined,03.asc,S040.png,search,0,43,2,0,timeout,15005,99
undefined,03.asc,F042.png,search,0,40,4,0,timeout,15004,100
undefined,03.asc,F023.png,search,0,6,0,0,w,3014,101
undefined,04.asc,P002.png,free,0,51,5,0,timeout,15004,0
undefined,04.asc,P001.png,free,0,43,12,0,timeout,15004,1
undefined,04.asc,F022.png,free,0,51,7,0,timeout,15005,2
undefined,04.asc,F018.png,free,0,49,7,0,timeout,15004,3
undefined,04.asc,F004.png,free,0,45,12,0,timeout,15004,4
undefined,04.asc,F012.png,free,0,52,6,0,timeout,15004,5
undefined,04.asc,S009.png,free,0,49,9,0,timeout,15004,6
undefined,04.asc,S049.png,free,0,49,5,0,timeout,15004,7
undefined,04.asc,S048.png,free,0,47,7,0,timeout,15003,8
undefined,04.asc,S019.png,free,0,45,3,0,timeout,15005,9
undefined,04.asc,F007.png,free,0,38,6,0,timeout,15004,10
undefined,04.asc,F041.png,free,0,44,9,0,timeout,15004,11
undefined,04.asc,S041.png,free,0,43,9,0,timeout,15004,12
undefined,04.asc,S043.png,free,0,42,6,0,timeout,15004,13
undefined,04.asc,F002.png,free,0,52,3,0,timeout,15004,14
undefined,04.asc,S022.png,free,0,46,4,0,timeout,15005,15
undefined,04.asc,F019.png,free,0,43,6,0,timeout,15005,16
undefined,04.asc,S047.png,free,0,43,6,0,timeout,15005,17
undefined,04.asc,F046.png,free,0,48,2,0,timeout,15005,18
undefined,04.asc,F010.png,free,0,51,2,0,timeout,15006,19
undefined,04.asc,F003.png,free,0,50,6,0,timeout,15005,20
undefined,04.asc,F038.png,free,0,50,11,0,timeout,15004,21
undefined,04.asc,S025.png,free,0,47,3,0,timeout,15004,22
undefined,04.asc,F027.png,free,0,48,3,0,timeout,15005,23
undefined,04.asc,F008.png,free,0,51,3,0,timeout,15003,24
undefined,04.asc,S046.png,free,0,48,2,0,timeout,15004,25
undefined,04.asc,F024.png,free,0,44,5,0,timeout,15004,26
undefined,04.asc,F048.png,free,0,45,4,0,timeout,15004,27
undefined,04.asc,F013.png,free,0,52,3,0,timeout,15004,28
undefined,04.asc,F026.png,free,0,48,5,0,timeout,15004,29
undefined,04.asc,S032.png,free,0,39,2,0,timeout,15005,30
undefined,04.asc,S036.png,free,0,50,3,0,timeout,15004,31
undefined,04.asc,S011.png,free,0,44,7,0,timeout,15004,32
undefined,04.asc,S006.png,free,0,42,3,0,timeout,15003,33
undefined,04.asc,F021.png,free,0,41,2,0,timeout,15005,34
undefined,04.asc,S042.png,free,0,41,3,0,timeout,15005,35
undefined,04.asc,S028.png,free,0,50,3,0,timeout,15004,36
undefined,04.asc,S014.png,free,0,49,5,0,timeout,15004,37
undefined,04.asc,S034.png,free,0,46,3,0,timeout,15004,38
undefined,04.asc,F044.png,free,0,47,1,0,timeout,15004,39
undefined,04.asc,S027.png,free,0,33,5,0,timeout,15004,40
undefined,04.asc,F034.png,free,0,42,10,0,timeout,15004,41
undefined,04.asc,S026.png,free,0,49,7,0,timeout,15005,42
undefined,04.asc,F049.png,free,0,46,9,0,timeout,15005,43
undefined,04.asc,S007.png,free,0,51,6,0,timeout,15004,44
undefined,04.asc,S017.png,free,0,44,10,0,timeout,15004,45
undefined,04.asc,F011.png,free,0,45,8,0,timeout,15004,46
undefined,04.asc,S012.png,free,0,41,4,0,timeout,15004,47
undefined,04.asc,S015.png,free,0,47,5,0,timeout,15005,48
undefined,04.asc,S020.png,free,0,44,4,0,timeout,15004,49
undefined,04.asc,S018.png,free,0,50,3,0,timeout,15004,50
undefined,04.asc,S035.png,free,0,44,3,0,timeout,15004,51
undefined,04.asc,F006.png,free,0,44,9,0,timeout,15003,52
undefined,04.asc,S024.png,free,0,46,4,0,timeout,15004,53
undefined,04.asc,S029.png,free,0,40,4,0,timeout,15005,54
undefined,04.asc,S016.png,free,0,43,9,0,timeout,15004,55
undefined,04.asc,S039.png,free,0,38,2,0,timeout,15004,56
undefined,04.asc,S013.png,free,0,45,6,0,timeout,15004,57
undefined,04.asc,S030.png,free,0,48,3,0,timeout,15003,58
undefined,04.asc,F023.png,free,0,48,2,0,timeout,15005,59
undefined,04.asc,S010.png,free,0,46,3,0,timeout,15005,60
undefined,04.asc,F047.png,free,0,45,4,0,timeout,15004,61
undefined,04.asc,F031.png,free,0,47,5,0,timeout,15005,62
undefined,04.asc,S002.png,free,0,36,3,0,timeout,15004,63
undefined,04.asc,F015.png,free,0,43,3,0,timeout,15004,64
undefined,04.asc,F036.png,free,0,45,2,0,timeout,15004,65
undefined,04.asc,F014.png,free,0,42,5,0,timeout,15003,66
undefined,04.asc,F020.png,free,0,39,1,0,timeout,15003,67
undefined,04.asc,F043.png,free,0,46,3,0,timeout,15004,68
undefined,04.asc,S021.png,free,0,40,6,0,timeout,15004,69
undefined,04.asc,F045.png,free,0,44,15,0,timeout,15005,70
undefined,04.asc,S000.png,free,0,45,14,0,timeout,15004,71
undefined,04.asc,S023.png,free,0,40,15,0,timeout,15005,72
undefined,04.asc,F030.png,free,0,46,15,0,timeout,15004,73
undefined,04.asc,F039.png,free,0,45,15,0,timeout,15004,74
undefined,04.asc,S003.png,free,0,47,11,0,timeout,15004,75
undefined,04.asc,S044.png,free,0,42,21,0,timeout,15005,76
undefined,04.asc,S005.png,free,0,45,10,0,timeout,15004,77
undefined,04.asc,F009.png,free,0,50,9,0,timeout,15004,78
undefined,04.asc,F017.png,free,0,45,10,0,timeout,15005,79
undefined,04.asc,S001.png,free,0,41,11,0,timeout,15004,80
undefined,04.asc,S008.png,free,0,25,10,0,timeout,15004,81
undefined,04.asc,F042.png,free,0,38,18,0,timeout,15005,82
undefined,04.asc,F028.png,free,0,46,22,0,timeout,15004,83
undefined,04.asc,F032.png,free,0,33,18,0,timeout,15004,84
undefined,04.asc,S031.png,free,0,41,13,0,timeout,15005,85
undefined,04.asc,S040.png,free,0,38,11,0,timeout,15005,86
undefined,04.asc,S004.png,free,0,45,9,0,timeout,15005,87
undefined,04.asc,F025.png,free,0,45,14,0,timeout,15004,88
undefined,04.asc,F000.png,free,0,42,17,0,timeout,15004,89
undefined,04.asc,F040.png,free,0,45,15,0,timeout,15003,90
undefined,04.asc,F037.png,free,0,38,12,0,timeout,15004,91
undefined,04.asc,S045.png,free,0,45,9,0,timeout,15005,92
undefined,04.asc,F005.png,free,0,40,19,0,timeout,15003,93
undefined,04.asc,F001.png,free,0,47,16,0,timeout,15004,94
undefined,04.asc,S038.png,free,0,42,13,0,timeout,15004,95
undefined,04.asc,F033.png,free,0,44,11,0,timeout,15004,96
undefined,04.asc,F016.png,free,0,42,16,0,timeout,15005,97
undefined,04.asc,F029.png,free,0,41,23,0,timeout,15005,98
undefined,04.asc,S033.png,free,0,42,18,0,timeout,15004,99
undefined,04.asc,F035.png,free,0,49,10,0,timeout,15004,100
undefined,04.asc,S037.png,free,0,48,15,0,timeout,15004,101
undefined,13.asc,P002.png,free,0,47,2,0,timeout,15005,0
undefined,13.asc,P001.png,free,0,40,9,0,timeout,15004,1
undefined,13.asc,S003.png,free,0,40,9,0,timeout,15004,2
undefined,13.asc,S013.png,free,0,39,4,0,timeout,15004,3
undefined,13.asc,F029.png,free,0,36,6,0,timeout,15004,4
undefined,13.asc,S016.png,free,0,34,3,0,timeout,15004,5
undefined,13.asc,S004.png,free,0,40,6,0,timeout,15004,6
undefined,13.asc,S026.png,free,0,37,9,0,timeout,15004,7
undefined,13.asc,F006.png,free,0,41,10,0,timeout,15004,8
undefined,13.asc,S049.png,free,0,43,11,0,timeout,15004,9
undefined,13.asc,F008.png,free,0,40,4,0,timeout,15004,10
undefined,13.asc,S021.png,free,0,40,17,0,timeout,15005,11
undefined,13.asc,F018.png,free,0,41,8,0,timeout,15004,12
undefined,13.asc,F045.png,free,0,38,16,0,timeout,15004,13
undefined,13.asc,S038.png,free,0,35,17,0,timeout,15004,14
undefined,13.asc,S048.png,free,0,48,13,0,timeout,15005,15
undefined,13.asc,S009.png,free,0,39,12,0,timeout,15004,16
undefined,13.asc,S042.png,free,0,38,25,0,timeout,15004,17
undefined,13.asc,F033.png,free,0,39,11,0,timeout,15004,18
undefined,13.asc,F035.png,free,0,44,20,0,timeout,15005,19
undefined,13.asc,F024.png,free,0,42,17,0,timeout,15005,20
undefined,13.asc,F001.png,free,0,37,21,0,timeout,15004,21
undefined,13.asc,S014.png,free,0,36,20,0,timeout,15004,22
undefined,13.asc,S028.png,free,0,45,22,0,timeout,15005,23
undefined,13.asc,F048.png,free,0,44,11,0,timeout,15004,24
undefined,13.asc,S034.png,free,0,37,28,0,timeout,15004,25
undefined,13.asc,S010.png,free,0,40,8,0,timeout,15005,26
undefined,13.asc,F049.png,free,0,43,12,0,timeout,15004,27
undefined,13.asc,F023.png,free,0,40,1,0,timeout,15006,28
undefined,13.asc,S033.png,free,0,41,5,0,timeout,15005,29
undefined,13.asc,S046.png,free,0,42,7,0,timeout,15004,30
undefined,13.asc,F028.png,free,0,37,8,0,timeout,15005,31
undefined,13.asc,F003.png,free,0,38,1,0,timeout,15005,32
undefined,13.asc,F021.png,free,0,38,7,0,timeout,15005,33
undefined,13.asc,F037.png,free,0,42,11,0,timeout,15004,34
undefined,13.asc,F017.png,free,0,40,7,0,timeout,15004,35
undefined,13.asc,S027.png,free,0,34,15,0,timeout,15004,36
undefined,13.asc,S005.png,free,0,38,5,0,timeout,15005,37
undefined,13.asc,F032.png,free,0,43,9,0,timeout,15004,38
undefined,13.asc,S020.png,free,0,34,17,0,timeout,15004,39
undefined,13.asc,S011.png,free,0,36,11,0,timeout,15004,40
undefined,13.asc,S006.png,free,0,37,26,0,timeout,15005,41
undefined,13.asc,S024.png,free,0,40,15,0,timeout,15005,42
undefined,13.asc,S007.png,free,0,41,8,0,timeout,15005,43
undefined,13.asc,F046.png,free,0,33,5,0,timeout,15004,44
undefined,13.asc,S025.png,free,0,38,6,0,timeout,15004,45
undefined,13.asc,S043.png,free,0,43,7,0,timeout,15004,46
undefined,13.asc,F041.png,free,0,32,15,0,timeout,15004,47
undefined,13.asc,S041.png,free,0,42,7,0,timeout,15004,48
undefined,13.asc,S047.png,free,0,25,13,0,timeout,15004,49
undefined,13.asc,S036.png,free,0,43,13,0,timeout,15004,50
undefined,13.asc,S000.png,free,0,38,15,0,timeout,15004,51
undefined,13.asc,S002.png,free,0,35,16,0,timeout,15004,52
undefined,13.asc,F034.png,free,0,38,19,0,timeout,15004,53
undefined,13.asc,F039.png,free,0,44,10,0,timeout,15004,54
undefined,13.asc,F026.png,free,0,41,12,0,timeout,15004,55
undefined,13.asc,S019.png,free,0,30,23,0,timeout,15004,56
undefined,13.asc,F011.png,free,0,37,22,0,timeout,15005,57
undefined,13.asc,F030.png,free,0,41,11,0,timeout,15004,58
undefined,13.asc,F019.png,free,0,36,15,0,timeout,15004,59
undefined,13.asc,S022.png,free,0,35,23,0,timeout,15005,60
undefined,13.asc,F007.png,free,0,38,13,0,timeout,15004,61
undefined,13.asc,S008.png,free,0,33,13,0,timeout,15004,62
undefined,13.asc,S015.png,free,0,48,19,0,timeout,15004,63
undefined,13.asc,F047.png,free,0,36,8,0,timeout,15004,64
undefined,13.asc,S037.png,free,0,41,11,0,timeout,15003,65
undefined,13.asc,F044.png,free,0,35,10,0,timeout,15004,66
undefined,13.asc,F012.png,free,0,42,13,0,timeout,15004,67
undefined,13.asc,S039.png,free,0,36,10,0,timeout,15004,68
undefined,13.asc,S045.png,free,0,45,18,0,timeout,15004,69
undefined,13.asc,S001.png,free,0,38,16,0,timeout,15005,70
undefined,13.asc,F013.png,free,0,36,16,0,timeout,15004,71
undefined,13.asc,S044.png,free,0,32,13,0,timeout,15004,72
undefined,13.asc,F014.png,free,0,35,14,0,timeout,15004,73
undefined,13.asc,S018.png,free,0,48,7,0,timeout,15004,74
undefined,13.asc,S030.png,free,0,40,10,0,timeout,15004,75
undefined,13.asc,F004.png,free,0,36,11,0,timeout,15004,76
undefined,13.asc,F038.png,free,0,26,5,0,timeout,15004,77
undefined,13.asc,F016.png,free,0,31,5,0,timeout,15004,78
undefined,13.asc,S031.png,free,0,24,17,0,timeout,15005,79
undefined,13.asc,F002.png,free,0,44,14,0,timeout,15003,80
undefined,13.asc,F020.png,free,0,32,13,0,timeout,15004,81
undefined,13.asc,F025.png,free,0,42,10,0,timeout,15004,82
undefined,13.asc,S017.png,free,0,29,17,0,timeout,15004,83
undefined,13.asc,F005.png,free,0,41,15,0,timeout,15005,84
undefined,13.asc,F040.png,free,0,36,12,0,timeout,15004,85
undefined,13.asc,F027.png,free,0,41,13,0,timeout,15005,86
undefined,13.asc,S032.png,free,0,40,16,0,timeout,15004,87
undefined,13.asc,F043.png,free,0,31,7,0,timeout,15004,88
undefined,13.asc,S023.png,free,0,35,13,0,timeout,15004,89
undefined,13.asc,F000.png,free,0,38,10,0,timeout,15004,90
undefined,13.asc,S012.png,free,0,26,16,0,timeout,15005,91
undefined,13.asc,F010.png,free,0,40,18,0,timeout,15003,92
undefined,13.asc,S040.png,free,0,25,24,0,timeout,15005,93
undefined,13.asc,S035.png,free,0,28,18,0,timeout,15004,94
undefined,13.asc,S029.png,free,0,35,9,0,timeout,15004,95
undefined,13.asc,F009.png,free,0,36,21,0,timeout,15005,96
undefined,13.asc,F022.png,free,0,34,15,0,timeout,15004,97
undefined,13.asc,F031.png,free,0,45,18,0,timeout,15004,98
undefined,13.asc,F036.png,free,0,43,9,0,timeout,15005,99
undefined,13.asc,F015.png,free,0,39,7,0,timeout,15005,100
undefined,13.asc,F042.png,free,0,27,24,0,timeout,15004,101
undefined,15.asc,P002.png,search,0,44,7,0,timeout,15004,0
undefined,15.asc,P001.png,search,0,31,3,0,;,11598,1
undefined,15.asc,S021.png,search,0,48,3,0,timeout,15004,2
undefined,15.asc,S019.png,search,0,47,1,0,timeout,15004,3
undefined,15.asc,F020.png,search,0,45,0,0,timeout,15004,4
undefined,15.asc,F033.png,search,0,23,0,0,;,8533,5
undefined,15.asc,F036.png,search,0,33,0,0,;,13099,6
undefined,15.asc,S042.png,search,0,44,2,0,timeout,15004,7
undefined,15.asc,S027.png,search,0,39,2,0,timeout,15004,8
undefined,15.asc,S043.png,search,0,48,0,0,timeout,15003,9
undefined,15.asc,F018.png,search,0,49,0,0,timeout,15004,10
undefined,15.asc,F007.png,search,0,48,0,0,timeout,15004,11
undefined,15.asc,F024.png,search,0,54,2,0,timeout,15004,12
undefined,15.asc,S048.png,search,0,6,0,0,;,3524,13
undefined,15.asc,F045.png,search,0,42,0,0,timeout,15004,14
undefined,15.asc,S005.png,search,0,49,0,0,timeout,15004,15
undefined,15.asc,S035.png,search,0,47,0,0,timeout,15005,16
undefined,15.asc,F008.png,search,0,43,4,0,timeout,15004,17
undefined,15.asc,S049.png,search,0,46,0,0,timeout,15004,18
undefined,15.asc,F030.png,search,0,8,0,0,;,6517,19
undefined,15.asc,S026.png,search,0,37,4,0,timeout,15003,20
undefined,15.asc,S022.png,search,0,49,0,0,timeout,15004,21
undefined,15.asc,S018.png,search,0,48,0,0,timeout,15004,22
undefined,15.asc,S006.png,search,0,44,0,0,timeout,15005,23
undefined,15.asc,S045.png,search,0,52,2,0,timeout,15004,24
undefined,15.asc,F002.png,search,0,46,1,0,timeout,15003,25
undefined,15.asc,S033.png,search,0,45,0,0,timeout,15004,26
undefined,15.asc,S017.png,search,0,14,0,0,w,4958,27
undefined,15.asc,F022.png,search,0,44,0,0,timeout,15004,28
undefined,15.asc,F044.png,search,0,42,1,0,timeout,15003,29
undefined,15.asc,F021.png,search,0,21,0,0,;,9653,30
undefined,15.asc,S001.png,search,0,49,2,0,timeout,15003,31
undefined,15.asc,S038.png,search,0,51,3,0,timeout,15004,32
undefined,15.asc,F034.png,search,0,25,0,0,;,10174,33
undefined,15.asc,F011.png,search,0,44,0,0,timeout,15004,34
undefined,15.asc,F004.png,search,0,2,0,0,w,1533,35
undefined,15.asc,F001.png,search,0,44,3,0,timeout,15004,36
undefined,15.asc,F029.png,search,0,46,0,0,timeout,15004,37
undefined,15.asc,F027.png,search,0,49,1,0,timeout,15003,38
undefined,15.asc,S002.png,search,0,8,0,0,w,3181,39
undefined,15.asc,S030.png,search,0,46,0,0,timeout,15004,40
undefined,15.asc,F019.png,search,0,41,2,0,timeout,15004,41
undefined,15.asc,F037.png,search,0,11,0,0,w,3941,42
undefined,15.asc,S039.png,search,0,50,0,0,timeout,15004,43
undefined,15.asc,S047.png,search,0,24,0,0,w,7605,44
undefined,15.asc,F005.png,search,0,49,0,0,timeout,15004,45
undefined,15.asc,S015.png,search,0,55,5,0,timeout,15004,46
undefined,15.asc,S025.png,search,0,47,6,0,timeout,15005,47
undefined,15.asc,F048.png,search,0,47,0,0,timeout,15004,48
undefined,15.asc,S011.png,search,0,49,0,0,timeout,15004,49
undefined,15.asc,S008.png,search,0,47,1,0,timeout,15004,50
undefined,15.asc,S012.png,search,0,50,0,0,timeout,15004,51
undefined,15.asc,F012.png,search,0,49,0,0,timeout,15004,52
undefined,15.asc,S046.png,search,0,49,0,0,timeout,15004,53
undefined,15.asc,F047.png,search,0,49,2,0,timeout,15004,54
undefined,15.asc,S041.png,search,0,42,0,0,timeout,15004,55
undefined,15.asc,S010.png,search,0,53,0,0,timeout,15004,56
undefined,15.asc,F025.png,search,0,6,0,0,w,2096,57
undefined,15.asc,F041.png,search,0,44,0,0,timeout,15004,58
undefined,15.asc,S009.png,search,0,48,0,0,timeout,15004,59
undefined,15.asc,F042.png,search,0,45,0,0,timeout,15003,60
undefined,15.asc,F049.png,search,0,44,1,0,timeout,15004,61
undefined,15.asc,S000.png,search,0,50,5,0,timeout,15005,62
undefined,15.asc,S013.png,search,0,43,1,0,timeout,15004,63
undefined,15.asc,S040.png,search,0,54,1,0,timeout,15004,64
undefined,15.asc,S016.png,search,0,49,4,0,timeout,15003,65
undefined,15.asc,S023.png,search,0,48,0,0,timeout,15005,66
undefined,15.asc,F028.png,search,0,51,2,0,timeout,15004,67
undefined,15.asc,S028.png,search,0,44,1,0,timeout,15003,68
undefined,15.asc,F006.png,search,0,44,0,0,timeout,15004,69
undefined,15.asc,S020.png,search,0,12,0,0,w,4789,70
undefined,15.asc,S024.png,search,0,40,0,0,timeout,15004,71
undefined,15.asc,S007.png,search,0,50,3,0,timeout,15003,72
undefined,15.asc,F031.png,search,0,47,0,0,timeout,15005,73
undefined,15.asc,F010.png,search,0,47,0,0,timeout,15004,74
undefined,15.asc,F035.png,search,0,50,0,0,timeout,15005,75
undefined,15.asc,F023.png,search,0,5,0,0,w,2669,76
undefined,15.asc,F026.png,search,0,44,0,0,timeout,15004,77
undefined,15.asc,S014.png,search,0,45,3,0,timeout,15004,78
undefined,15.asc,F015.png,search,0,47,0,0,timeout,15004,79
undefined,15.asc,S032.png,search,0,50,0,0,timeout,15005,80
undefined,15.asc,F016.png,search,0,12,1,0,w,4485,81
undefined,15.asc,F040.png,search,0,51,0,0,timeout,15005,82
undefined,15.asc,F017.png,search,0,39,0,0,timeout,15003,83
undefined,15.asc,F046.png,search,0,44,1,0,timeout,15004,84
undefined,15.asc,S036.png,search,0,15,0,0,w,5886,85
undefined,15.asc,S003.png,search,0,48,0,0,timeout,15004,86
undefined,15.asc,F032.png,search,0,52,3,0,timeout,15004,87
undefined,15.asc,F000.png,search,0,43,0,0,timeout,15005,88
undefined,15.asc,F043.png,search,0,47,0,0,timeout,15003,89
undefined,15.asc,F038.png,search,0,47,1,0,timeout,15005,90
undefined,15.asc,S031.png,search,0,47,0,0,timeout,15004,91
undefined,15.asc,F009.png,search,0,46,0,0,timeout,15005,92
undefined,15.asc,S034.png,search,0,49,3,0,timeout,15003,93
undefined,15.asc,F039.png,search,0,45,0,0,timeout,15004,94
undefined,15.asc,S004.png,search,0,48,0,0,timeout,15004,95
undefined,15.asc,S037.png,search,0,9,0,0,w,3494,96
undefined,15.asc,F014.png,search,0,43,1,0,timeout,15003,97
undefined,15.asc,S029.png,search,0,45,3,0,timeout,15004,98
undefined,15.asc,S044.png,search,0,12,0,0,;,4133,99
undefined,15.asc,F013.png,search,0,43,0,0,timeout,15004,100
undefined,15.asc,F003.png,search,0,46,0,0,timeout,15004,101
undefined,10.asc,P002.png,free,0,49,3,0,timeout,15004,0
undefined,10.asc,P001.png,free,0,47,3,0,timeout,15004,1
undefined,10.asc,F043.png,free,0,40,2,0,timeout,15004,2
undefined,10.asc,F011.png,free,0,43,3,0,timeout,15004,3
undefined,10.asc,S046.png,free,0,38,5,0,timeout,15003,4
undefined,10.asc,S020.png,free,0,37,5,0,timeout,15004,5
undefined,10.asc,S017.png,free,0,39,5,0,timeout,15006,6
undefined,10.asc,F024.png,free,0,43,3,0,timeout,15004,7
undefined,10.asc,S009.png,free,0,45,5,0,timeout,15004,8
undefined,10.asc,S039.png,free,0,45,5,0,timeout,15005,9
undefined,10.asc,S028.png,free,0,42,5,0,timeout,15004,10
undefined,10.asc,S034.png,free,0,45,8,0,timeout,15004,11
undefined,10.asc,F009.png,free,0,45,4,0,timeout,15004,12
undefined,10.asc,S015.png,free,0,47,4,0,timeout,15003,13
undefined,10.asc,F032.png,free,0,45,5,0,timeout,15005,14
undefined,10.asc,S047.png,free,0,46,4,0,timeout,15003,15
undefined,10.asc,S048.png,free,0,44,5,0,timeout,15004,16
undefined,10.asc,S035.png,free,0,42,5,0,timeout,15004,17
undefined,10.asc,S005.png,free,0,43,5,0,timeout,15004,18
undefined,10.asc,S023.png,free,0,43,7,0,timeout,15005,19
undefined,10.asc,F008.png,free,0,43,4,0,timeout,15004,20
undefined,10.asc,S022.png,free,0,44,4,0,timeout,15003,21
undefined,10.asc,S043.png,free,0,43,6,0,timeout,15005,22
undefined,10.asc,S025.png,free,0,45,5,0,timeout,15005,23
undefined,10.asc,F018.png,free,0,44,5,0,timeout,15004,24
undefined,10.asc,S012.png,free,0,42,4,0,timeout,15004,25
undefined,10.asc,F045.png,free,0,49,3,0,timeout,15004,26
undefined,10.asc,S041.png,free,0,45,5,0,timeout,15005,27
undefined,10.asc,F036.png,free,0,46,3,0,timeout,15005,28
undefined,10.asc,S003.png,free,0,45,8,0,timeout,15004,29
undefined,10.asc,S030.png,free,0,44,4,0,timeout,15004,30
undefined,10.asc,F006.png,free,0,41,4,0,timeout,15004,31
undefined,10.asc,F004.png,free,0,39,4,0,timeout,15003,32
undefined,10.asc,S006.png,free,0,40,5,0,timeout,15004,33
undefined,10.asc,S038.png,free,0,44,3,0,timeout,15004,34
undefined,10.asc,S019.png,free,0,45,5,0,timeout,15004,35
undefined,10.asc,S037.png,free,0,42,3,0,timeout,15004,36
undefined,10.asc,F041.png,free,0,40,4,0,timeout,15003,37
undefined,10.asc,F010.png,free,0,43,3,0,timeout,15005,38
undefined,10.asc,S007.png,free,0,47,6,0,timeout,15003,39
undefined,10.asc,F033.png,free,0,44,4,0,timeout,15003,40
undefined,10.asc,F000.png,free,0,42,6,0,timeout,15005,41
undefined,10.asc,F049.png,free,0,46,5,0,timeout,15004,42
undefined,10.asc,F039.png,free,0,48,4,0,timeout,15003,43
undefined,10.asc,F029.png,free,0,43,5,0,timeout,15006,44
undefined,10.asc,S011.png,free,0,43,3,0,timeout,15003,45
undefined,10.asc,F001.png,free,0,42,5,0,timeout,15005,46
undefined,10.asc,F040.png,free,0,44,3,0,timeout,15003,47
undefined,10.asc,F030.png,free,0,41,5,0,timeout,15005,48
undefined,10.asc,F035.png,free,0,40,5,0,timeout,15004,49
undefined,10.asc,F031.png,free,0,46,4,0,timeout,15005,50
undefined,10.asc,S044.png,free,0,44,4,0,timeout,15004,51
undefined,10.asc,F002.png,free,0,47,5,0,timeout,15004,52
undefined,10.asc,F038.png,free,0,44,4,0,timeout,15004,53
undefined,10.asc,S018.png,free,0,47,5,0,timeout,15004,54
undefined,10.asc,F042.png,free,0,45,4,0,timeout,15004,55
undefined,10.asc,S010.png,free,0,46,5,0,timeout,15004,56
undefined,10.asc,S049.png,free,0,45,4,0,timeout,15005,57
undefined,10.asc,S029.png,free,0,44,4,0,timeout,15003,58
undefined,10.asc,F044.png,free,0,45,4,0,timeout,15004,59
undefined,10.asc,S024.png,free,0,44,8,0,timeout,15004,60
undefined,10.asc,F034.png,free,0,39,4,0,timeout,15003,61
undefined,10.asc,S036.png,free,0,45,5,0,timeout,15005,62
undefined,10.asc,S004.png,free,0,46,5,0,timeout,15004,63
undefined,10.asc,S026.png,free,0,43,4,0,timeout,15004,64
undefined,10.asc,F027.png,free,0,42,7,0,timeout,15004,65
undefined,10.asc,F005.png,free,0,47,5,0,timeout,15004,66
undefined,10.asc,F014.png,free,0,42,5,0,timeout,15004,67
undefined,10.asc,S002.png,free,0,41,6,0,timeout,15005,68
undefined,10.asc,F016.png,free,0,41,6,0,timeout,15005,69
undefined,10.asc,F022.png,free,0,43,6,0,timeout,15004,70
undefined,10.asc,F015.png,free,0,47,4,0,timeout,15004,71
undefined,10.asc,F017.png,free,0,40,4,0,timeout,15004,72
undefined,10.asc,S027.png,free,0,44,5,0,timeout,15005,73
undefined,10.asc,F046.png,free,0,45,4,0,timeout,15004,74
undefined,10.asc,S045.png,free,0,46,4,0,timeout,15004,75
undefined,10.asc,F026.png,free,0,45,7,0,timeout,15003,76
undefined,10.asc,S021.png,free,0,39,7,0,timeout,15004,77
undefined,10.asc,S014.png,free,0,41,6,0,timeout,15005,78
undefined,10.asc,F023.png,free,0,43,4,0,timeout,15004,79
undefined,10.asc,S040.png,free,0,44,3,0,timeout,15005,80
undefined,10.asc,S008.png,free,0,42,3,0,timeout,15005,81
undefined,10.asc,S031.png,free,0,42,3,0,timeout,15004,82
undefined,10.asc,F007.png,free,0,45,3,0,timeout,15004,83
undefined,10.asc,F019.png,free,0,43,4,0,timeout,15004,84
undefined,10.asc,S042.png,free,0,48,5,0,timeout,15006,85
undefined,10.asc,F020.png,free,0,41,4,0,timeout,15003,86
undefined,10.asc,F021.png,free,0,43,6,0,timeout,15004,87
undefined,10.asc,S001.png,free,0,44,4,0,timeout,15004,88
undefined,10.asc,F025.png,free,0,50,5,0,timeout,15004,89
undefined,10.asc,F013.png,free,0,45,8,0,timeout,15003,90
undefined,10.asc,S032.png,free,0,45,3,0,timeout,15004,91
undefined,10.asc,S013.png,free,0,42,5,0,timeout,15004,92
undefined,10.asc,S000.png,free,0,42,4,0,timeout,15004,93
undefined,10.asc,F028.png,free,0,46,6,0,timeout,15004,94
undefined,10.asc,F003.png,free,0,44,3,0,timeout,15004,95
undefined,10.asc,F037.png,free,0,45,5,0,timeout,15004,96
undefined,10.asc,S016.png,free,0,41,5,0,timeout,15004,97
undefined,10.asc,S033.png,free,0,45,4,0,timeout,15004,98
undefined,10.asc,F047.png,free,0,45,7,0,timeout,15004,99
undefined,10.asc,F048.png,free,0,43,6,0,timeout,15004,100
undefined,10.asc,F012.png,free,0,46,7,0,timeout,15004,101
undefined,07.asc,P002.png,free,0,43,5,0,timeout,15004,0
undefined,07.asc,P001.png,free,0,44,5,0,timeout,15005,1
undefined,07.asc,S011.png,free,0,40,5,0,timeout,15005,2
undefined,07.asc,S037.png,free,0,39,6,0,timeout,15003,3
undefined,07.asc,S024.png,free,0,40,3,0,timeout,15004,4
undefined,07.asc,S004.png,free,0,41,3,0,timeout,15004,5
undefined,07.asc,F005.png,free,0,43,5,0,timeout,15004,6
undefined,07.asc,S044.png,free,0,44,3,0,timeout,15004,7
undefined,07.asc,S020.png,free,0,43,6,0,timeout,15005,8
undefined,07.asc,F038.png,free,0,43,4,0,timeout,15004,9
undefined,07.asc,F016.png,free,0,41,8,0,timeout,15004,10
undefined,07.asc,S048.png,free,0,44,6,0,timeout,15004,11
undefined,07.asc,F037.png,free,0,41,5,0,timeout,15003,12
undefined,07.asc,F047.png,free,0,38,8,0,timeout,15005,13
undefined,07.asc,S045.png,free,0,44,6,0,timeout,15004,14
undefined,07.asc,F034.png,free,0,39,9,0,timeout,15004,15
undefined,07.asc,F043.png,free,0,40,8,0,timeout,15004,16
undefined,07.asc,F025.png,free,0,44,4,0,timeout,15005,17
undefined,07.asc,S023.png,free,0,39,10,0,timeout,15004,18
undefined,07.asc,S034.png,free,0,40,10,0,timeout,15005,19
undefined,07.asc,S009.png,free,0,50,7,0,timeout,15004,20
undefined,07.asc,S017.png,free,0,36,11,0,timeout,15004,21
undefined,07.asc,F013.png,free,0,41,5,0,timeout,15004,22
undefined,07.asc,S001.png,free,0,41,5,0,timeout,15004,23
undefined,07.asc,F017.png,free,0,41,5,0,timeout,15005,24
undefined,07.asc,F033.png,free,0,38,10,0,timeout,15004,25
undefined,07.asc,S010.png,free,0,39,5,0,timeout,15004,26
undefined,07.asc,S029.png,free,0,39,9,0,timeout,15005,27
undefined,07.asc,S030.png,free,0,43,7,0,timeout,15004,28
undefined,07.asc,F024.png,free,0,44,8,0,timeout,15004,29
undefined,07.asc,S021.png,free,0,39,7,0,timeout,15005,30
undefined,07.asc,S016.png,free,0,36,8,0,timeout,15004,31
undefined,07.asc,S036.png,free,0,39,6,0,timeout,15004,32
undefined,07.asc,S007.png,free,0,39,7,0,timeout,15003,33
undefined,07.asc,F027.png,free,0,41,3,0,timeout,15004,34
undefined,07.asc,F029.png,free,0,44,7,0,timeout,15004,35
undefined,07.asc,S032.png,free,0,40,4,0,timeout,15004,36
undefined,07.asc,S025.png,free,0,42,5,0,timeout,15004,37
undefined,07.asc,F039.png,free,0,42,5,0,timeout,15003,38
undefined,07.asc,F041.png,free,0,40,5,0,timeout,15004,39
undefined,07.asc,S033.png,free,0,38,7,0,timeout,15004,40
undefined,07.asc,S006.png,free,0,38,13,0,timeout,15003,41
undefined,07.asc,S043.png,free,0,41,7,0,timeout,15004,42
undefined,07.asc,F000.png,free,0,36,6,0,timeout,15004,43
undefined,07.asc,F044.png,free,0,42,7,0,timeout,15004,44
undefined,07.asc,F042.png,free,0,44,6,0,timeout,15004,45
undefined,07.asc,F036.png,free,0,39,8,0,timeout,15003,46
undefined,07.asc,S028.png,free,0,40,11,0,timeout,15003,47
undefined,07.asc,S012.png,free,0,40,5,0,timeout,15003,48
undefined,07.asc,S031.png,free,0,37,12,0,timeout,15004,49
undefined,07.asc,F007.png,free,0,39,4,0,timeout,15005,50
undefined,07.asc,F002.png,free,0,41,4,0,timeout,15003,51
undefined,07.asc,S040.png,free,0,35,3,0,timeout,15005,52
undefined,07.asc,S003.png,free,0,39,3,0,timeout,15004,53
undefined,07.asc,S019.png,free,0,41,4,0,timeout,15003,54
undefined,07.asc,S008.png,free,0,42,4,0,timeout,15004,55
undefined,07.asc,S015.png,free,0,39,2,0,timeout,15003,56
undefined,07.asc,F010.png,free,0,39,4,0,timeout,15004,57
undefined,07.asc,F045.png,free,0,38,5,0,timeout,15005,58
undefined,07.asc,F019.png,free,0,44,7,0,timeout,15003,59
undefined,07.asc,F012.png,free,0,40,5,0,timeout,15004,60
undefined,07.asc,F046.png,free,0,33,6,0,timeout,15005,61
undefined,07.asc,F008.png,free,0,40,7,0,timeout,15004,62
undefined,07.asc,F049.png,free,0,40,6,0,timeout,15004,63
undefined,07.asc,S035.png,free,0,40,4,0,timeout,15004,64
undefined,07.asc,S022.png,free,0,40,4,0,timeout,15005,65
undefined,07.asc,S046.png,free,0,38,4,0,timeout,15004,66
undefined,07.asc,S000.png,free,0,41,7,0,timeout,15004,67
undefined,07.asc,S027.png,free,0,37,8,0,timeout,15005,68
undefined,07.asc,F021.png,free,0,38,10,0,timeout,15003,69
undefined,07.asc,S013.png,free,0,39,8,0,timeout,15005,70
undefined,07.asc,F004.png,free,0,41,10,0,timeout,15005,71
undefined,07.asc,F031.png,free,0,36,9,0,timeout,15004,72
undefined,07.asc,F015.png,free,0,41,5,0,timeout,15004,73
undefined,07.asc,F028.png,free,0,45,9,0,timeout,15003,74
undefined,07.asc,F040.png,free,0,41,7,0,timeout,15004,75
undefined,07.asc,F035.png,free,0,37,6,0,timeout,15003,76
undefined,07.asc,F018.png,free,0,43,5,0,timeout,15003,77
undefined,07.asc,S014.png,free,0,44,9,0,timeout,15004,78
undefined,07.asc,S005.png,free,0,45,9,0,timeout,15005,79
undefined,07.asc,F026.png,free,0,43,10,0,timeout,15004,80
undefined,07.asc,F003.png,free,0,39,6,0,timeout,15004,81
undefined,07.asc,F048.png,free,0,42,9,0,timeout,15004,82
undefined,07.asc,S049.png,free,0,39,7,0,timeout,15004,83
undefined,07.asc,F011.png,free,0,43,7,0,timeout,15004,84
undefined,07.asc,S039.png,free,0,38,9,0,timeout,15004,85
undefined,07.asc,S047.png,free,0,27,14,0,timeout,15005,86
undefined,07.asc,F014.png,free,0,42,8,0,timeout,15004,87
undefined,07.asc,S002.png,free,0,39,6,0,timeout,15003,88
undefined,07.asc,F006.png,free,0,42,4,0,timeout,15004,89
undefined,07.asc,F009.png,free,0,46,7,0,timeout,15005,90
undefined,07.asc,F020.png,free,0,46,8,0,timeout,15004,91
undefined,07.asc,S026.png,free,0,42,10,0,timeout,15004,92
undefined,07.asc,F023.png,free,0,42,7,0,timeout,15003,93
undefined,07.asc,F032.png,free,0,42,8,0,timeout,15003,94
undefined,07.asc,S038.png,free,0,37,12,0,timeout,15003,95
undefined,07.asc,F001.png,free,0,38,7,0,timeout,15003,96
undefined,07.asc,S018.png,free,0,42,11,0,timeout,15003,97
undefined,07.asc,F022.png,free,0,40,7,0,timeout,15004,98
undefined,07.asc,F030.png,free,0,37,8,0,timeout,15004,99
undefined,07.asc,S042.png,free,0,36,10,0,timeout,15004,100
undefined,07.asc,S041.png,free,0,39,11,0,timeout,15005,101
undefined,11.asc,P002.png,memory,0,39,1,0,timeout,15004,0
undefined,11.asc,P001.png,memory,0,35,1,0,timeout,15004,1
undefined,11.asc,S030.png,memory,0,45,2,0,timeout,15004,2
undefined,11.asc,F024.png,memory,0,39,2,0,timeout,15006,3
undefined,11.asc,S003.png,memory,0,33,2,0,timeout,15005,4
undefined,11.asc,S004.png,memory,0,39,1,0,timeout,15004,5
undefined,11.asc,F010.png,memory,0,36,2,0,timeout,15004,6
undefined,11.asc,F046.png,memory,0,39,1,0,timeout,15004,7
undefined,11.asc,F015.png,memory,0,37,2,0,timeout,15004,8
undefined,11.asc,F017.png,memory,0,33,1,0,timeout,15005,9
undefined,11.asc,S027.png,memory,0,32,1,0,timeout,15004,10
undefined,11.asc,F042.png,memory,0,33,2,0,timeout,15004,11
undefined,11.asc,S015.png,memory,0,41,1,0,timeout,15005,12
undefined,11.asc,S016.png,memory,0,34,2,0,timeout,15005,13
undefined,11.asc,F031.png,memory,0,39,2,0,timeout,15005,14
undefined,11.asc,S011.png,memory,0,40,1,0,timeout,15004,15
undefined,11.asc,F039.png,memory,0,38,1,0,timeout,15004,16
undefined,11.asc,F014.png,memory,0,30,2,0,timeout,15004,17
undefined,11.asc,S034.png,memory,0,39,2,0,timeout,15004,18
undefined,11.asc,S044.png,memory,0,39,1,0,timeout,15005,19
undefined,11.asc,F030.png,memory,0,31,2,0,timeout,15003,20
undefined,11.asc,F008.png,memory,0,33,4,0,timeout,15004,21
undefined,11.asc,F019.png,memory,0,34,0,0,timeout,15005,22
undefined,11.asc,F037.png,memory,0,38,1,0,timeout,15004,23
undefined,11.asc,S010.png,memory,0,42,0,0,timeout,15004,24
undefined,11.asc,F006.png,memory,0,32,4,0,timeout,15004,25
undefined,11.asc,S012.png,memory,0,40,1,0,timeout,15004,26
undefined,11.asc,F011.png,memory,0,37,3,0,timeout,15004,27
undefined,11.asc,F028.png,memory,0,30,0,0,timeout,15004,28
undefined,11.asc,F036.png,memory,0,38,3,0,timeout,15004,29
undefined,11.asc,S046.png,memory,0,38,1,0,timeout,15004,30
undefined,11.asc,S033.png,memory,0,35,2,0,timeout,15004,31
undefined,11.asc,S019.png,memory,0,39,0,0,timeout,15004,32
undefined,11.asc,S007.png,memory,0,37,1,0,timeout,15004,33
undefined,11.asc,S029.png,memory,0,36,4,0,timeout,15004,34
undefined,11.asc,F033.png,memory,0,34,3,0,timeout,15004,35
undefined,11.asc,S028.png,memory,0,34,2,0,timeout,15004,36
undefined,11.asc,S009.png,memory,0,46,0,0,timeout,15004,37
undefined,11.asc,S013.png,memory,0,33,5,0,timeout,15005,38
undefined,11.asc,F009.png,memory,0,40,3,0,timeout,15006,39
undefined,11.asc,S041.png,memory,0,42,3,0,timeout,15005,40
undefined,11.asc,S022.png,memory,0,41,2,0,timeout,15004,41
undefined,11.asc,F020.png,memory,0,36,4,0,timeout,15004,42
undefined,11.asc,F003.png,memory,0,28,3,0,timeout,15004,43
undefined,11.asc,F043.png,memory,0,39,2,0,timeout,15004,44
undefined,11.asc,F018.png,memory,0,40,2,0,timeout,15005,45
undefined,11.asc,S008.png,memory,0,34,2,0,timeout,15004,46
undefined,11.asc,S036.png,memory,0,38,4,0,timeout,15004,47
undefined,11.asc,F016.png,memory,0,35,1,0,timeout,15005,48
undefined,11.asc,F040.png,memory,0,33,3,0,timeout,15004,49
undefined,11.asc,S049.png,memory,0,35,0,0,timeout,15004,50
undefined,11.asc,S017.png,memory,0,35,1,0,timeout,15005,51
undefined,11.asc,S031.png,memory,0,22,0,0,timeout,15004,52
undefined,11.asc,S024.png,memory,0,32,1,0,timeout,15004,53
undefined,11.asc,S040.png,memory,0,36,2,0,timeout,15005,54
undefined,11.asc,F007.png,memory,0,36,4,0,timeout,15005,55
undefined,11.asc,F035.png,memory,0,36,3,0,timeout,15005,56
undefined,11.asc,F038.png,memory,0,31,3,0,timeout,15004,57
undefined,11.asc,F045.png,memory,0,37,4,0,timeout,15004,58
undefined,11.asc,S042.png,memory,0,40,3,0,timeout,15004,59
undefined,11.asc,F049.png,memory,0,38,1,0,timeout,15004,60
undefined,11.asc,S035.png,memory,0,39,1,0,timeout,15004,61
undefined,11.asc,F032.png,memory,0,35,1,0,timeout,15005,62
undefined,11.asc,S039.png,memory,0,34,2,0,timeout,15003,63
undefined,11.asc,F004.png,memory,0,29,8,0,timeout,15004,64
undefined,11.asc,F047.png,memory,0,37,3,0,timeout,15005,65
undefined,11.asc,F021.png,memory,0,27,4,0,timeout,15004,66
undefined,11.asc,F023.png,memory,0,36,2,0,timeout,15004,67
undefined,11.asc,S021.png,memory,0,31,4,0,timeout,15004,68
undefined,11.asc,F027.png,memory,0,39,3,0,timeout,15005,69
undefined,11.asc,S018.png,memory,0,46,2,0,timeout,15004,70
undefined,11.asc,F012.png,memory,0,39,5,0,timeout,15005,71
undefined,11.asc,F048.png,memory,0,31,5,0,timeout,15005,72
undefined,11.asc,S000.png,memory,0,38,2,0,timeout,15004,73
undefined,11.asc,F005.png,memory,0,32,7,0,timeout,15003,74
undefined,11.asc,S048.png,memory,0,37,5,0,timeout,15005,75
undefined,11.asc,S001.png,memory,0,31,4,0,timeout,15004,76
undefined,11.asc,F041.png,memory,0,29,5,0,timeout,15005,77
undefined,11.asc,F034.png,memory,0,30,9,0,timeout,15004,78
undefined,11.asc,S043.png,memory,0,36,3,0,timeout,15004,79
undefined,11.asc,F000.png,memory,0,34,6,0,timeout,15004,80
undefined,11.asc,F002.png,memory,0,36,1,0,timeout,15004,81
undefined,11.asc,S032.png,memory,0,43,1,0,timeout,15005,82
undefined,11.asc,S014.png,memory,0,38,2,0,timeout,15004,83
undefined,11.asc,F025.png,memory,0,43,1,0,timeout,15004,84
undefined,11.asc,S037.png,memory,0,27,2,0,timeout,15004,85
undefined,11.asc,S020.png,memory,0,36,0,0,timeout,15004,86
undefined,11.asc,S023.png,memory,0,36,2,0,timeout,15004,87
undefined,11.asc,S038.png,memory,0,37,1,0,timeout,15004,88
undefined,11.asc,F013.png,memory,0,37,3,0,timeout,15004,89
undefined,11.asc,F026.png,memory,0,36,4,0,timeout,15004,90
undefined,11.asc,S005.png,memory,0,33,5,0,timeout,15004,91
undefined,11.asc,S045.png,memory,0,37,0,0,timeout,15004,92
undefined,11.asc,F022.png,memory,0,37,4,0,timeout,15003,93
undefined,11.asc,F044.png,memory,0,30,3,0,timeout,15005,94
undefined,11.asc,S006.png,memory,0,33,1,0,timeout,15005,95
undefined,11.asc,S025.png,memory,0,31,2,0,timeout,15004,96
undefined,11.asc,S026.png,memory,0,35,2,0,timeout,15004,97
undefined,11.asc,F029.png,memory,0,32,4,0,timeout,15004,98
undefined,11.asc,S002.png,memory,0,33,2,0,timeout,15004,99
undefined,11.asc,F001.png,memory,0,35,1,0,timeout,15005,100
undefined,11.asc,S047.png,memory,0,29,1,0,timeout,15005,101
